Trial Number, Response, Correct/Incorrect(1/0), RT, Condition, Difficulty, Colour Order (Single Grids Only)
1	left	1	1.074	B,o	Con - Easy 1	1	
2	left	1	0.700	b,o	Exp - Hard 1	1	
3	left	1	0.965	B,o	Con - Easy 2	1	
4	right	1	0.715	O,b	Con - Easy 1	1	
5	right	1	2.233	o,b	Exp - Hard 1	1	
6	left	1	2.287	b,o	Exp - Hard 2	1	
7	right	1	1.078	O,b	Con - Easy 1	1	
8	left	0	2.036	o,b	Exp - Hard 1	1	
9	left	1	1.834	B,o	Con - Easy 1	1	
10	left	1	0.843	b,o	Exp - Hard 1	1	
11	left	1	0.967	b,o	Exp - Hard 1	1	
12	right	1	0.865	o,b	Exp - Hard 2	1	
13	left	1	0.774	B,o	Con - Easy 2	1	
14	right	1	0.795	O,b	Con - Easy 2	1	
15	right	1	1.120	O,b	Con - Easy 1	1	
16	left	1	1.681	b,o	Exp - Hard 2	1	
17	left	1	0.890	B,o	Con - Easy 2	1	
18	right	1	0.734	O,b	Con - Easy 2	1	
19	left	1	0.952	b,o	Exp - Hard 1	1	
20	left	1	0.926	b,o	Exp - Hard 2	1	
21	right	1	1.724	o,b	Exp - Hard 1	1	
22	right	1	0.835	O,b	Con - Easy 2	1	
23	left	1	0.707	b,o	Exp - Hard 2	1	
24	left	1	0.753	B,o	Con - Easy 2	1	
25	left	0	1.572	o,b	Exp - Hard 1	1	
26	left	1	0.936	b,o	Exp - Hard 2	1	
27	right	1	0.811	O,b	Con - Easy 2	1	
28	left	1	0.734	B,o	Con - Easy 2	1	
29	left	1	0.760	B,o	Con - Easy 1	1	
30	left	0	1.146	o,b	Exp - Hard 2	1	
31	right	1	4.172	o,b	Exp - Hard 2	1	
32	right	1	1.075	O,b	Con - Easy 1	1	
33	right	1	1.413	O,b	Con - Easy 1	1	
34	left	0	0.977	o,b	Exp - Hard 1	1	
35	left	0	2.111	o,b	Exp - Hard 2	1	
36	right	1	2.937	o,b	Exp - Hard 2	1	
37	left	1	0.857	B,o	Con - Easy 1	1	
38	left	1	0.819	B,o	Con - Easy 1	1	
39	left	1	0.893	b,o	Exp - Hard 1	1	
40	right	1	0.706	O,b	Con - Easy 2	1	
1	left	1	1.025	B2,B2	Exp - Easy 2 & Easy 2	
2	left	1	1.586	b2,b2	Exp - Hard 2 & Hard 2	
3	left	1	0.995	b1,B1	Con - Hard 1 & Easy 1	
4	left	1	1.763	B1,b1	Con - Easy 1 & Hard 1	
5	left	1	1.749	B2,B2	Exp - Easy 2 & Easy 2	
6	left	1	2.255	B2,b2	Con - Easy 2 & Hard 2	
7	left	1	2.715	B1,b1	Con - Easy 1 & Hard 1	
8	right	1	2.125	o1,b1	Exp - Hard 1 & Hard 1	
9	right	1	2.251	o2,B2	Con - Hard 2 & Easy 2	
10	left	1	3.447	b2,b2	Exp - Hard 2 & Hard 2	
11	left	1	1.886	B1,b1	Con - Easy 1 & Hard 1	
12	left	1	2.515	B1,b1	Con - Easy 1 & Hard 1	
13	left	1	2.212	b2,b2	Exp - Hard 2 & Hard 2	
14	right	1	1.275	o2,B2	Con - Hard 2 & Easy 2	
15	right	1	1.865	o2,b2	Exp - Hard 2 & Hard 2	
16	right	1	0.859	O1,B1	Exp - Easy 1 & Easy 1	
17	left	1	3.423	b1,b1	Exp - Hard 1 & Hard 1	
18	left	1	1.653	B2,B2	Exp - Easy 2 & Easy 2	
19	left	1	3.482	b1,b1	Exp - Hard 1 & Hard 1	
20	right	1	1.208	o1,B1	Con - Hard 1 & Easy 1	
21	left	1	3.841	b1,B1	Con - Hard 1 & Easy 1	
22	right	1	1.003	O2,B2	Exp - Easy 2 & Easy 2	
23	left	1	1.283	B1,b1	Con - Easy 1 & Hard 1	
24	left	1	1.186	B1,B1	Exp - Easy 1 & Easy 1	
25	left	0	2.185	o2,b2	Exp - Hard 2 & Hard 2	
26	left	1	1.416	B2,b2	Con - Easy 2 & Hard 2	
27	left	0	1.508	o2,B2	Con - Hard 2 & Easy 2	
28	right	1	2.444	B1,o1	Con - Easy 1 & Hard 1	
29	right	1	1.800	o2,b2	Exp - Hard 2 & Hard 2	
30	left	0	2.917	o2,B2	Con - Hard 2 & Easy 2	
31	right	1	1.165	O2,B2	Exp - Easy 2 & Easy 2	
32	left	0	1.398	B2,o2	Con - Easy 2 & Hard 2	
33	left	0	1.998	B2,o2	Con - Easy 2 & Hard 2	
34	left	1	1.270	b1,b1	Exp - Hard 1 & Hard 1	
35	left	1	2.244	b1,b1	Exp - Hard 1 & Hard 1	
36	left	1	0.975	B1,B1	Exp - Easy 1 & Easy 1	
37	left	1	0.752	B1,B1	Exp - Easy 1 & Easy 1	
38	right	1	0.753	O1,B1	Exp - Easy 1 & Easy 1	
39	left	0	1.539	o2,b2	Exp - Hard 2 & Hard 2	
40	left	1	0.832	b1,B1	Con - Hard 1 & Easy 1	
41	right	1	6.023	B2,o2	Con - Easy 2 & Hard 2	
42	right	1	1.508	o1,B1	Con - Hard 1 & Easy 1	
43	left	1	0.977	B2,B2	Exp - Easy 2 & Easy 2	
44	right	1	1.280	o1,B1	Con - Hard 1 & Easy 1	
45	right	1	0.784	O1,B1	Exp - Easy 1 & Easy 1	
46	left	1	1.745	B2,b2	Con - Easy 2 & Hard 2	
47	right	1	3.083	B1,o1	Con - Easy 1 & Hard 1	
48	right	1	1.385	o2,b2	Exp - Hard 2 & Hard 2	
49	right	1	1.334	o1,B1	Con - Hard 1 & Easy 1	
50	left	1	1.665	B2,b2	Con - Easy 2 & Hard 2	
51	left	0	2.579	o1,b1	Exp - Hard 1 & Hard 1	
52	left	0	1.280	B2,o2	Con - Easy 2 & Hard 2	
53	right	1	0.698	O1,B1	Exp - Easy 1 & Easy 1	
54	left	1	1.251	b1,b1	Exp - Hard 1 & Hard 1	
55	left	0	2.171	o2,b2	Exp - Hard 2 & Hard 2	
56	left	1	1.999	b1,B1	Con - Hard 1 & Easy 1	
57	right	0	2.335	B2,b2	Con - Easy 2 & Hard 2	
58	right	1	0.873	o1,b1	Exp - Hard 1 & Hard 1	
59	right	0	1.349	B2,b2	Con - Easy 2 & Hard 2	
60	right	1	1.090	B1,o1	Con - Easy 1 & Hard 1	
61	right	0	1.844	b2,B2	Con - Hard 2 & Easy 2	
62	left	1	3.925	B1,B1	Exp - Easy 1 & Easy 1	
63	left	1	2.090	b1,B1	Con - Hard 1 & Easy 1	
64	right	1	0.820	O2,B2	Exp - Easy 2 & Easy 2	
65	right	1	0.844	o1,b1	Exp - Hard 1 & Hard 1	
66	right	1	0.757	O1,B1	Exp - Easy 1 & Easy 1	
67	right	1	3.770	o2,b2	Exp - Hard 2 & Hard 2	
68	left	1	1.057	B2,B2	Exp - Easy 2 & Easy 2	
69	left	1	0.946	b1,B1	Con - Hard 1 & Easy 1	
70	left	0	1.277	o2,B2	Con - Hard 2 & Easy 2	
71	right	1	1.846	B2,o2	Con - Easy 2 & Hard 2	
72	left	1	3.111	b2,B2	Con - Hard 2 & Easy 2	
73	right	0	2.251	B2,b2	Con - Easy 2 & Hard 2	
74	right	1	3.285	o2,B2	Con - Hard 2 & Easy 2	
75	right	1	1.713	o1,b1	Exp - Hard 1 & Hard 1	
76	right	1	0.834	O2,B2	Exp - Easy 2 & Easy 2	
77	left	1	2.008	B2,b2	Con - Easy 2 & Hard 2	
78	right	1	1.370	o1,B1	Con - Hard 1 & Easy 1	
79	left	1	2.464	B1,B1	Exp - Easy 1 & Easy 1	
80	right	1	0.798	o2,B2	Con - Hard 2 & Easy 2	
81	right	1	0.895	o2,B2	Con - Hard 2 & Easy 2	
82	right	1	0.662	O2,B2	Exp - Easy 2 & Easy 2	
83	right	1	1.081	O2,B2	Exp - Easy 2 & Easy 2	
84	left	1	3.400	b1,b1	Exp - Hard 1 & Hard 1	
85	left	1	2.120	B2,b2	Con - Easy 2 & Hard 2	
86	left	0	2.662	o2,B2	Con - Hard 2 & Easy 2	
87	right	1	0.951	O1,B1	Exp - Easy 1 & Easy 1	
88	left	1	0.882	B2,B2	Exp - Easy 2 & Easy 2	
89	left	1	0.729	b1,B1	Con - Hard 1 & Easy 1	
90	right	1	0.780	O1,B1	Exp - Easy 1 & Easy 1	
91	right	1	0.839	O2,B2	Exp - Easy 2 & Easy 2	
92	left	0	1.259	o1,b1	Exp - Hard 1 & Hard 1	
93	right	1	0.917	O2,B2	Exp - Easy 2 & Easy 2	
94	left	1	0.773	B1,B1	Exp - Easy 1 & Easy 1	
95	left	1	1.461	b2,b2	Exp - Hard 2 & Hard 2	
96	right	1	3.079	B1,o1	Con - Easy 1 & Hard 1	
97	right	0	3.395	b2,b2	Exp - Hard 2 & Hard 2	
98	right	1	1.498	B1,o1	Con - Easy 1 & Hard 1	
99	left	1	0.772	B2,B2	Exp - Easy 2 & Easy 2	
100	right	1	1.393	o1,b1	Exp - Hard 1 & Hard 1	
101	right	1	1.980	o2,b2	Exp - Hard 2 & Hard 2	
102	right	1	1.931	o2,b2	Exp - Hard 2 & Hard 2	
103	left	1	0.873	B1,b1	Con - Easy 1 & Hard 1	
104	right	1	2.121	B2,o2	Con - Easy 2 & Hard 2	
105	right	0	2.065	B1,b1	Con - Easy 1 & Hard 1	
106	right	1	1.276	B1,o1	Con - Easy 1 & Hard 1	
107	left	1	4.745	b1,B1	Con - Hard 1 & Easy 1	
108	left	1	0.818	B1,B1	Exp - Easy 1 & Easy 1	
109	right	0	2.251	b2,B2	Con - Hard 2 & Easy 2	
110	right	0	2.837	b1,b1	Exp - Hard 1 & Hard 1	
111	right	0	3.162	B2,b2	Con - Easy 2 & Hard 2	
112	right	1	3.397	o2,b2	Exp - Hard 2 & Hard 2	
113	right	0	2.802	B2,b2	Con - Easy 2 & Hard 2	
114	right	0	1.224	b2,B2	Con - Hard 2 & Easy 2	
115	right	0	2.292	B1,b1	Con - Easy 1 & Hard 1	
116	right	0	2.063	b2,b2	Exp - Hard 2 & Hard 2	
117	left	1	3.754	b1,B1	Con - Hard 1 & Easy 1	
118	right	0	1.603	B1,b1	Con - Easy 1 & Hard 1	
119	right	1	0.918	O2,B2	Exp - Easy 2 & Easy 2	
120	left	0	1.355	B2,o2	Con - Easy 2 & Hard 2	
121	right	0	1.780	B1,B1	Exp - Easy 1 & Easy 1	
122	right	1	0.785	o1,B1	Con - Hard 1 & Easy 1	
123	right	1	0.902	o2,B2	Con - Hard 2 & Easy 2	
124	right	1	0.848	O1,B1	Exp - Easy 1 & Easy 1	
125	right	0	1.590	b1,b1	Exp - Hard 1 & Hard 1	
126	right	1	0.816	O1,B1	Exp - Easy 1 & Easy 1	
127	left	1	3.245	B2,B2	Exp - Easy 2 & Easy 2	
128	right	0	1.661	b2,B2	Con - Hard 2 & Easy 2	
129	right	0	4.678	b1,B1	Con - Hard 1 & Easy 1	
130	right	1	0.887	o1,b1	Exp - Hard 1 & Hard 1	
131	right	0	1.341	b2,B2	Con - Hard 2 & Easy 2	
132	right	0	1.846	b1,B1	Con - Hard 1 & Easy 1	
133	left	1	3.175	B1,B1	Exp - Easy 1 & Easy 1	
134	left	1	1.040	B1,B1	Exp - Easy 1 & Easy 1	
135	right	1	1.728	o2,b2	Exp - Hard 2 & Hard 2	
136	right	0	2.447	B1,b1	Con - Easy 1 & Hard 1	
137	left	1	3.862	B1,B1	Exp - Easy 1 & Easy 1	
138	right	0	2.496	b2,B2	Con - Hard 2 & Easy 2	
139	right	1	0.875	O1,B1	Exp - Easy 1 & Easy 1	
140	right	1	1.404	B1,o1	Con - Easy 1 & Hard 1	
141	right	1	1.464	o1,B1	Con - Hard 1 & Easy 1	
142	right	1	1.506	o1,B1	Con - Hard 1 & Easy 1	
143	right	1	1.802	o1,B1	Con - Hard 1 & Easy 1	
144	right	0	3.579	B1,b1	Con - Easy 1 & Hard 1	
145	right	1	0.978	o1,b1	Exp - Hard 1 & Hard 1	
146	right	0	1.151	B1,B1	Exp - Easy 1 & Easy 1	
147	right	0	2.230	b2,b2	Exp - Hard 2 & Hard 2	
148	right	1	1.831	B1,o1	Con - Easy 1 & Hard 1	
149	right	0	1.341	b2,B2	Con - Hard 2 & Easy 2	
150	right	1	1.435	B2,o2	Con - Easy 2 & Hard 2	
151	right	0	5.756	b1,B1	Con - Hard 1 & Easy 1	
152	right	1	1.650	o2,B2	Con - Hard 2 & Easy 2	
153	right	1	1.861	o2,b2	Exp - Hard 2 & Hard 2	
154	right	1	1.388	o1,B1	Con - Hard 1 & Easy 1	
155	right	1	1.171	O1,B1	Exp - Easy 1 & Easy 1	
156	right	1	1.231	B1,o1	Con - Easy 1 & Hard 1	
157	right	0	1.031	b1,b1	Exp - Hard 1 & Hard 1	
158	right	1	1.214	o1,B1	Con - Hard 1 & Easy 1	
159	left	1	2.913	B2,b2	Con - Easy 2 & Hard 2	
160	right	0	1.332	B2,b2	Con - Easy 2 & Hard 2	
161	right	1	2.624	B2,o2	Con - Easy 2 & Hard 2	
162	right	1	1.053	B1,o1	Con - Easy 1 & Hard 1	
163	right	0	2.007	B2,B2	Exp - Easy 2 & Easy 2	
164	left	1	2.770	b2,B2	Con - Hard 2 & Easy 2	
165	left	1	3.619	b2,b2	Exp - Hard 2 & Hard 2	
166	right	1	1.751	o1,B1	Con - Hard 1 & Easy 1	
167	right	1	1.299	o2,b2	Exp - Hard 2 & Hard 2	
168	right	1	1.520	o1,b1	Exp - Hard 1 & Hard 1	
169	right	1	1.523	B1,o1	Con - Easy 1 & Hard 1	
170	right	1	1.416	O2,B2	Exp - Easy 2 & Easy 2	
171	left	1	1.995	B2,B2	Exp - Easy 2 & Easy 2	
172	left	0	1.195	B2,o2	Con - Easy 2 & Hard 2	
173	right	1	2.127	O2,B2	Exp - Easy 2 & Easy 2	
174	left	1	1.507	b2,b2	Exp - Hard 2 & Hard 2	
175	right	1	2.001	o1,b1	Exp - Hard 1 & Hard 1	
176	right	1	1.574	B2,o2	Con - Easy 2 & Hard 2	
177	left	1	4.376	b2,B2	Con - Hard 2 & Easy 2	
178	right	1	0.745	O1,B1	Exp - Easy 1 & Easy 1	
179	left	1	1.207	b1,b1	Exp - Hard 1 & Hard 1	
180	left	0	0.948	B2,o2	Con - Easy 2 & Hard 2	
181	right	1	1.213	o1,b1	Exp - Hard 1 & Hard 1	
182	left	1	1.380	B2,B2	Exp - Easy 2 & Easy 2	
183	left	1	1.275	B2,B2	Exp - Easy 2 & Easy 2	
184	right	1	1.252	B2,o2	Con - Easy 2 & Hard 2	
185	right	1	1.001	o2,B2	Con - Hard 2 & Easy 2	
186	right	0	2.449	b2,b2	Exp - Hard 2 & Hard 2	
187	right	0	1.340	b1,b1	Exp - Hard 1 & Hard 1	
188	right	0	2.125	b1,B1	Con - Hard 1 & Easy 1	
189	left	1	1.401	B1,B1	Exp - Easy 1 & Easy 1	
190	left	1	4.097	b2,b2	Exp - Hard 2 & Hard 2	
191	right	1	1.878	o2,B2	Con - Hard 2 & Easy 2	
192	right	1	1.646	B1,o1	Con - Easy 1 & Hard 1	
193	right	0	2.034	b2,b2	Exp - Hard 2 & Hard 2	
194	left	1	1.784	B2,B2	Exp - Easy 2 & Easy 2	
195	right	0	1.676	b2,B2	Con - Hard 2 & Easy 2	
196	right	1	0.937	O2,B2	Exp - Easy 2 & Easy 2	
197	right	0	1.510	B1,b1	Con - Easy 1 & Hard 1	
198	right	1	0.836	O1,B1	Exp - Easy 1 & Easy 1	
199	right	0	2.352	b2,b2	Exp - Hard 2 & Hard 2	
200	right	0	1.918	B1,b1	Con - Easy 1 & Hard 1	
201	right	0	5.792	b1,b1	Exp - Hard 1 & Hard 1	
202	left	1	1.852	b2,B2	Con - Hard 2 & Easy 2	
203	right	1	1.261	B1,o1	Con - Easy 1 & Hard 1	
204	left	1	4.169	b1,b1	Exp - Hard 1 & Hard 1	
205	right	1	1.586	o1,B1	Con - Hard 1 & Easy 1	
206	right	0	2.614	b2,B2	Con - Hard 2 & Easy 2	
207	right	1	0.775	O2,B2	Exp - Easy 2 & Easy 2	
208	right	1	2.197	o1,b1	Exp - Hard 1 & Hard 1	
1	left	1	1.035	O,b	Con - Easy 2	2	
2	right	1	0.811	B,o	Con - Easy 1	2	
3	right	0	0.730	O,b	Con - Easy 2	2	
4	right	1	1.263	B,o	Con - Easy 1	2	
5	right	1	1.833	b,o	Exp - Hard 2	2	
6	left	1	0.640	O,b	Con - Easy 1	2	
7	left	1	1.887	o,b	Exp - Hard 2	2	
8	left	1	0.660	O,b	Con - Easy 1	2	
9	left	1	1.708	o,b	Exp - Hard 1	2	
10	left	1	0.678	O,b	Con - Easy 1	2	
11	left	1	0.959	o,b	Exp - Hard 1	2	
12	left	1	0.696	O,b	Con - Easy 2	2	
13	left	1	2.446	o,b	Exp - Hard 2	2	
14	right	1	0.924	b,o	Exp - Hard 2	2	
15	left	1	0.777	O,b	Con - Easy 2	2	
16	right	1	1.632	B,o	Con - Easy 1	2	
17	left	1	2.115	o,b	Exp - Hard 1	2	
18	right	0	2.745	o,b	Exp - Hard 1	2	
19	right	1	1.080	B,o	Con - Easy 2	2	
20	left	1	6.485	o,b	Exp - Hard 2	2	
21	left	1	0.947	O,b	Con - Easy 1	2	
22	right	1	0.979	B,o	Con - Easy 1	2	
23	right	1	0.862	b,o	Exp - Hard 2	2	
24	right	1	0.782	b,o	Exp - Hard 2	2	
25	right	1	0.585	B,o	Con - Easy 2	2	
26	right	1	1.874	b,o	Exp - Hard 1	2	
27	right	1	0.729	B,o	Con - Easy 1	2	
28	right	1	2.162	b,o	Exp - Hard 1	2	
29	left	1	1.337	o,b	Exp - Hard 2	2	
30	right	1	3.707	b,o	Exp - Hard 1	2	
31	right	1	0.764	B,o	Con - Easy 2	2	
32	left	0	2.146	b,o	Exp - Hard 2	2	
33	left	1	0.995	o,b	Exp - Hard 1	2	
34	left	1	0.910	o,b	Exp - Hard 2	2	
35	right	1	0.702	B,o	Con - Easy 2	2	
36	left	1	0.845	O,b	Con - Easy 1	2	
37	left	0	1.554	b,o	Exp - Hard 1	2	
38	left	1	0.703	O,b	Con - Easy 2	2	
39	right	1	1.302	b,o	Exp - Hard 1	2	
40	right	1	1.244	B,o	Con - Easy 2	2	
1	right	0	2.212	o1,O1	Con - Hard 1 & Easy 1	
2	right	1	3.359	b1,o1	Exp - Hard 1 & Hard 1	
3	right	0	3.154	O1,o1	Con - Easy 1 & Hard 1	
4	right	1	2.204	B2,O2	Exp - Easy 2 & Easy 2	
5	left	1	1.291	O1,o1	Con - Easy 1 & Hard 1	
6	right	1	1.834	O1,b1	Con - Easy 1 & Hard 1	
7	left	0	1.997	b1,o1	Exp - Hard 1 & Hard 1	
8	left	1	2.203	O2,o2	Exp - Easy 2 & Hard 2	
9	right	1	1.560	b1,O1	Con - Hard 1 & Easy 1	
10	left	1	1.365	o2,o2	Exp - Hard 2 & Hard 2	
11	left	1	0.831	O2,O2	Exp - Easy 2 & Easy 2	
12	left	1	0.882	O2,O2	Exp - Easy 2 & Easy 2	
13	left	0	3.543	b1,o1	Exp - Hard 1 & Hard 1	
14	right	1	2.140	O1,b1	Con - Easy 1 & Hard 1	
15	left	0	3.061	O2,b2	Con - Easy 2 & Hard 2	
16	left	1	1.776	o1,o1	Exp - Hard 1 & Hard 1	
17	left	0	2.177	O2,b2	Con - Easy 2 & Hard 2	
18	right	1	1.079	B1,O1	Exp - Easy 1 & Easy 1	
19	left	1	2.254	O2,o2	Exp - Easy 2 & Hard 2	
20	right	1	1.427	b1,O1	Con - Hard 1 & Easy 1	
21	left	1	1.250	o2,O2	Con - Hard 2 & Easy 2	
22	right	1	1.048	B1,O1	Exp - Easy 1 & Easy 1	
23	left	1	1.343	o1,o1	Exp - Hard 1 & Hard 1	
24	left	0	1.152	b2,o2	Exp - Hard 2 & Hard 2	
25	left	1	1.347	o2,o2	Exp - Hard 2 & Hard 2	
26	right	1	1.275	B1,O1	Exp - Easy 1 & Easy 1	
27	left	0	1.129	b2,o2	Exp - Hard 2 & Hard 2	
28	right	1	1.568	B2,O2	Exp - Easy 2 & Easy 2	
29	left	0	1.080	O2,b2	Con - Easy 2 & Hard 2	
30	left	0	0.928	b2,o2	Exp - Hard 2 & Hard 2	
31	left	1	0.859	O1,o1	Con - Easy 1 & Hard 1	
32	left	1	1.486	O1,o1	Con - Easy 1 & Hard 1	
33	right	1	0.903	B1,O1	Exp - Easy 1 & Easy 1	
34	left	1	1.004	o1,o1	Exp - Hard 1 & Hard 1	
35	left	0	1.643	O2,b2	Con - Easy 2 & Hard 2	
36	left	1	2.106	O2,o2	Exp - Easy 2 & Hard 2	
37	left	0	3.633	b2,o2	Exp - Hard 2 & Hard 2	
38	left	1	1.668	o1,O1	Con - Hard 1 & Easy 1	
39	right	1	0.968	b1,O1	Con - Hard 1 & Easy 1	
40	right	1	0.786	B2,O2	Exp - Easy 2 & Easy 2	
41	right	1	2.057	b2,O2	Con - Hard 2 & Easy 2	
42	right	1	2.608	b1,O1	Con - Hard 1 & Easy 1	
43	left	1	2.499	O2,o2	Exp - Easy 2 & Hard 2	
44	left	0	1.746	b2,o2	Exp - Hard 2 & Hard 2	
45	left	1	1.645	o2,o2	Exp - Hard 2 & Hard 2	
46	right	1	0.861	B1,O1	Exp - Easy 1 & Easy 1	
47	right	1	1.256	b2,O2	Con - Hard 2 & Easy 2	
48	left	1	0.914	O2,O2	Exp - Easy 2 & Easy 2	
49	right	1	2.057	b1,o1	Exp - Hard 1 & Hard 1	
50	right	1	1.362	B2,O2	Exp - Easy 2 & Easy 2	
51	right	1	0.811	B2,O2	Exp - Easy 2 & Easy 2	
52	left	0	1.468	b2,O2	Con - Hard 2 & Easy 2	
53	right	1	1.835	O2,b2	Con - Easy 2 & Hard 2	
54	left	1	1.312	O1,O1	Exp - Easy 1 & Easy 1	
55	left	1	1.785	O2,o2	Exp - Easy 2 & Hard 2	
56	right	0	1.623	o1,O1	Con - Hard 1 & Easy 1	
57	left	0	2.340	O2,b2	Con - Easy 2 & Hard 2	
58	left	1	1.607	O1,o1	Con - Easy 1 & Hard 1	
59	left	1	1.132	O2,o2	Exp - Easy 2 & Hard 2	
60	right	0	1.210	o1,O1	Con - Hard 1 & Easy 1	
61	right	1	3.625	b1,o1	Exp - Hard 1 & Hard 1	
62	left	1	2.313	O2,o2	Exp - Easy 2 & Hard 2	
63	right	1	1.090	b1,O1	Con - Hard 1 & Easy 1	
64	right	1	1.080	b2,O2	Con - Hard 2 & Easy 2	
65	left	1	0.950	O1,O1	Exp - Easy 1 & Easy 1	
66	left	1	1.967	o1,o1	Exp - Hard 1 & Hard 1	
67	left	1	2.923	o1,O1	Con - Hard 1 & Easy 1	
68	right	1	1.713	B1,O1	Exp - Easy 1 & Easy 1	
69	right	1	1.029	O1,b1	Con - Easy 1 & Hard 1	
70	right	1	1.170	b2,O2	Con - Hard 2 & Easy 2	
71	left	1	0.776	O1,O1	Exp - Easy 1 & Easy 1	
72	right	0	1.530	o1,o1	Exp - Hard 1 & Hard 1	
73	left	1	1.033	O2,O2	Exp - Easy 2 & Easy 2	
74	right	1	2.055	b2,o2	Exp - Hard 2 & Hard 2	
75	left	1	0.859	O1,O1	Exp - Easy 1 & Easy 1	
76	right	1	1.134	b2,O2	Con - Hard 2 & Easy 2	
77	right	1	1.084	B1,O1	Exp - Easy 1 & Easy 1	
78	right	0	1.816	o2,O2	Con - Hard 2 & Easy 2	
79	right	1	2.243	b2,o2	Exp - Hard 2 & Hard 2	
80	left	1	2.351	o1,O1	Con - Hard 1 & Easy 1	
81	right	1	2.043	O1,b1	Con - Easy 1 & Hard 1	
82	right	1	2.314	b2,O2	Con - Hard 2 & Easy 2	
83	right	1	2.356	b2,o2	Exp - Hard 2 & Hard 2	
84	left	1	1.382	o2,O2	Con - Hard 2 & Easy 2	
85	right	0	4.497	o1,o1	Exp - Hard 1 & Hard 1	
86	left	1	0.846	O1,O1	Exp - Easy 1 & Easy 1	
87	right	1	0.993	b1,O1	Con - Hard 1 & Easy 1	
88	right	0	0.942	o2,O2	Con - Hard 2 & Easy 2	
89	right	1	1.089	B2,O2	Exp - Easy 2 & Easy 2	
90	right	1	0.982	B2,O2	Exp - Easy 2 & Easy 2	
91	left	1	0.932	O1,O1	Exp - Easy 1 & Easy 1	
92	left	1	0.721	O1,O1	Exp - Easy 1 & Easy 1	
93	right	1	1.426	B2,O2	Exp - Easy 2 & Easy 2	
94	right	1	1.965	b2,O2	Con - Hard 2 & Easy 2	
95	left	1	2.332	o2,o2	Exp - Hard 2 & Hard 2	
96	left	1	2.172	o2,O2	Con - Hard 2 & Easy 2	
97	left	1	2.067	o2,O2	Con - Hard 2 & Easy 2	
98	left	1	1.396	O2,o2	Exp - Easy 2 & Hard 2	
99	right	1	1.642	O1,b1	Con - Easy 1 & Hard 1	
100	right	0	3.385	o2,o2	Exp - Hard 2 & Hard 2	
101	right	1	1.007	B1,O1	Exp - Easy 1 & Easy 1	
102	left	1	2.837	O1,o1	Con - Easy 1 & Hard 1	
103	right	1	1.672	b2,O2	Con - Hard 2 & Easy 2	
104	left	1	1.214	O1,o1	Con - Easy 1 & Hard 1	
105	right	1	2.014	b2,O2	Con - Hard 2 & Easy 2	
106	left	1	1.482	o1,o1	Exp - Hard 1 & Hard 1	
107	right	0	2.431	O2,o2	Exp - Easy 2 & Hard 2	
108	right	1	1.146	b1,o1	Exp - Hard 1 & Hard 1	
109	right	1	0.896	B1,O1	Exp - Easy 1 & Easy 1	
110	right	1	1.124	b1,O1	Con - Hard 1 & Easy 1	
111	right	0	1.583	o2,o2	Exp - Hard 2 & Hard 2	
112	left	1	1.107	O2,O2	Exp - Easy 2 & Easy 2	
113	right	1	0.920	B1,O1	Exp - Easy 1 & Easy 1	
114	right	1	2.877	b1,o1	Exp - Hard 1 & Hard 1	
115	right	0	2.607	o1,o1	Exp - Hard 1 & Hard 1	
116	right	1	1.147	b1,O1	Con - Hard 1 & Easy 1	
117	left	0	3.093	O2,b2	Con - Easy 2 & Hard 2	
118	left	0	2.534	O1,b1	Con - Easy 1 & Hard 1	
119	left	0	2.419	b2,o2	Exp - Hard 2 & Hard 2	
120	left	1	2.506	o1,o1	Exp - Hard 1 & Hard 1	
121	left	0	1.626	b2,O2	Con - Hard 2 & Easy 2	
122	right	1	3.387	b2,O2	Con - Hard 2 & Easy 2	
123	left	1	1.525	O2,O2	Exp - Easy 2 & Easy 2	
124	left	1	1.597	o1,o1	Exp - Hard 1 & Hard 1	
125	left	1	1.229	O2,O2	Exp - Easy 2 & Easy 2	
126	right	1	1.669	O1,b1	Con - Easy 1 & Hard 1	
127	left	1	2.711	o2,O2	Con - Hard 2 & Easy 2	
128	left	1	2.236	o1,o1	Exp - Hard 1 & Hard 1	
129	right	1	2.376	O2,b2	Con - Easy 2 & Hard 2	
130	right	1	5.085	b2,o2	Exp - Hard 2 & Hard 2	
131	left	1	2.150	O2,O2	Exp - Easy 2 & Easy 2	
132	right	1	0.853	B1,O1	Exp - Easy 1 & Easy 1	
133	left	1	1.333	O1,o1	Con - Easy 1 & Hard 1	
134	right	1	1.013	b1,o1	Exp - Hard 1 & Hard 1	
135	right	1	1.664	b1,o1	Exp - Hard 1 & Hard 1	
136	left	0	3.723	b2,o2	Exp - Hard 2 & Hard 2	
137	right	1	2.249	O2,b2	Con - Easy 2 & Hard 2	
138	right	0	1.772	o2,O2	Con - Hard 2 & Easy 2	
139	left	1	4.498	o1,o1	Exp - Hard 1 & Hard 1	
140	left	1	2.160	O2,O2	Exp - Easy 2 & Easy 2	
141	left	1	3.333	O1,o1	Con - Easy 1 & Hard 1	
142	right	1	1.293	B2,O2	Exp - Easy 2 & Easy 2	
143	left	1	2.476	o1,O1	Con - Hard 1 & Easy 1	
144	right	1	1.904	b1,O1	Con - Hard 1 & Easy 1	
145	right	0	3.367	o2,O2	Con - Hard 2 & Easy 2	
146	right	1	0.918	O1,b1	Con - Easy 1 & Hard 1	
147	right	1	1.106	b1,o1	Exp - Hard 1 & Hard 1	
148	left	1	0.934	O1,O1	Exp - Easy 1 & Easy 1	
149	right	1	1.565	b2,O2	Con - Hard 2 & Easy 2	
150	left	1	1.090	O2,o2	Exp - Easy 2 & Hard 2	
151	right	0	2.114	O2,o2	Exp - Easy 2 & Hard 2	
152	right	1	0.881	B2,O2	Exp - Easy 2 & Easy 2	
153	right	0	2.027	O1,o1	Con - Easy 1 & Hard 1	
154	right	0	1.564	o1,O1	Con - Hard 1 & Easy 1	
155	right	0	1.436	o1,O1	Con - Hard 1 & Easy 1	
156	right	1	2.449	b1,o1	Exp - Hard 1 & Hard 1	
157	right	1	1.615	O1,b1	Con - Easy 1 & Hard 1	
158	right	0	2.259	o2,o2	Exp - Hard 2 & Hard 2	
159	right	1	1.414	O1,b1	Con - Easy 1 & Hard 1	
160	right	1	1.291	B1,O1	Exp - Easy 1 & Easy 1	
161	left	1	3.796	o1,O1	Con - Hard 1 & Easy 1	
162	right	1	2.759	O1,b1	Con - Easy 1 & Hard 1	
163	left	1	1.559	O2,O2	Exp - Easy 2 & Easy 2	
164	left	1	1.703	O1,O1	Exp - Easy 1 & Easy 1	
165	right	1	0.794	B2,O2	Exp - Easy 2 & Easy 2	
166	right	0	1.901	O1,o1	Con - Easy 1 & Hard 1	
167	right	0	2.363	o2,o2	Exp - Hard 2 & Hard 2	
168	right	0	1.973	o2,O2	Con - Hard 2 & Easy 2	
169	right	1	1.690	O2,b2	Con - Easy 2 & Hard 2	
170	left	1	1.723	O2,O2	Exp - Easy 2 & Easy 2	
171	right	1	1.141	b1,O1	Con - Hard 1 & Easy 1	
172	right	0	2.319	o2,o2	Exp - Hard 2 & Hard 2	
173	right	1	1.521	O2,b2	Con - Easy 2 & Hard 2	
174	left	1	1.877	o2,O2	Con - Hard 2 & Easy 2	
175	left	1	1.316	o2,o2	Exp - Hard 2 & Hard 2	
176	right	1	3.079	O2,b2	Con - Easy 2 & Hard 2	
177	left	1	1.283	o2,O2	Con - Hard 2 & Easy 2	
178	right	1	1.709	b1,o1	Exp - Hard 1 & Hard 1	
179	right	1	0.787	B1,O1	Exp - Easy 1 & Easy 1	
180	right	1	0.859	O1,b1	Con - Easy 1 & Hard 1	
181	left	1	1.629	o1,o1	Exp - Hard 1 & Hard 1	
182	right	1	2.274	b1,O1	Con - Hard 1 & Easy 1	
183	right	1	1.997	b1,O1	Con - Hard 1 & Easy 1	
184	left	1	1.366	O1,O1	Exp - Easy 1 & Easy 1	
185	right	0	2.560	O1,o1	Con - Easy 1 & Hard 1	
186	left	1	4.080	O1,o1	Con - Easy 1 & Hard 1	
187	left	1	1.013	O1,O1	Exp - Easy 1 & Easy 1	
188	left	1	1.337	O1,O1	Exp - Easy 1 & Easy 1	
189	left	1	0.942	O1,O1	Exp - Easy 1 & Easy 1	
190	left	0	3.828	O2,b2	Con - Easy 2 & Hard 2	
191	right	0	1.861	o1,O1	Con - Hard 1 & Easy 1	
192	left	1	3.598	o2,o2	Exp - Hard 2 & Hard 2	
193	left	1	1.966	o2,O2	Con - Hard 2 & Easy 2	
194	left	1	1.717	O2,O2	Exp - Easy 2 & Easy 2	
195	left	1	4.106	O2,o2	Exp - Easy 2 & Hard 2	
196	left	1	2.052	o1,O1	Con - Hard 1 & Easy 1	
197	left	1	1.227	o1,O1	Con - Hard 1 & Easy 1	
198	right	0	1.564	o2,o2	Exp - Hard 2 & Hard 2	
199	right	1	4.227	O1,b1	Con - Easy 1 & Hard 1	
200	left	0	1.415	b1,o1	Exp - Hard 1 & Hard 1	
201	left	0	1.427	b2,o2	Exp - Hard 2 & Hard 2	
202	left	1	1.330	O2,O2	Exp - Easy 2 & Easy 2	
203	left	1	0.972	O2,o2	Exp - Easy 2 & Hard 2	
204	right	1	1.514	b1,O1	Con - Hard 1 & Easy 1	
205	right	1	1.587	B2,O2	Exp - Easy 2 & Easy 2	
206	left	1	1.127	o2,o2	Exp - Hard 2 & Hard 2	
207	right	1	2.486	b2,o2	Exp - Hard 2 & Hard 2	
208	right	1	1.805	B2,O2	Exp - Easy 2 & Easy 2	
