Trial Number, Response, Correct/Incorrect(1/0), RT, Condition, Difficulty, Colour Order (Single Grids Only)
1	right	1	2.176	o,b	Exp - Hard 2	1	
2	right	1	1.222	O,b	Con - Easy 2	1	
3	left	1	0.521	B,o	Con - Easy 2	1	
4	left	1	0.405	B,o	Con - Easy 2	1	
5	left	1	0.403	b,o	Exp - Hard 2	1	
6	right	1	0.521	O,b	Con - Easy 2	1	
7	left	1	0.839	b,o	Exp - Hard 2	1	
8	left	1	0.783	B,o	Con - Easy 2	1	
9	left	1	1.371	b,o	Exp - Hard 1	1	
10	left	1	0.687	B,o	Con - Easy 1	1	
11	right	1	0.924	O,b	Con - Easy 2	1	
12	left	1	0.956	b,o	Exp - Hard 2	1	
13	left	1	4.840	b,o	Exp - Hard 2	1	
14	left	1	0.639	B,o	Con - Easy 1	1	
15	left	1	0.655	b,o	Exp - Hard 2	1	
16	left	0	2.938	o,b	Exp - Hard 2	1	
17	left	1	0.506	B,o	Con - Easy 2	1	
18	right	1	0.388	O,b	Con - Easy 1	1	
19	left	1	0.534	B,o	Con - Easy 1	1	
20	left	1	0.422	b,o	Exp - Hard 1	1	
21	left	0	0.886	o,b	Exp - Hard 1	1	
22	right	1	0.637	O,b	Con - Easy 1	1	
23	left	1	0.673	B,o	Con - Easy 2	1	
24	left	0	0.839	o,b	Exp - Hard 1	1	
25	left	1	0.506	b,o	Exp - Hard 1	1	
26	right	1	0.590	O,b	Con - Easy 1	1	
27	left	0	0.590	o,b	Exp - Hard 1	1	
28	right	1	1.537	o,b	Exp - Hard 2	1	
29	left	1	0.590	b,o	Exp - Hard 1	1	
30	left	0	0.970	o,b	Exp - Hard 2	1	
31	right	1	3.870	O,b	Con - Easy 1	1	
32	left	0	0.870	o,b	Exp - Hard 1	1	
33	left	1	0.455	B,o	Con - Easy 1	1	
34	left	1	0.422	b,o	Exp - Hard 1	1	
35	left	1	0.521	B,o	Con - Easy 1	1	
36	left	0	0.571	o,b	Exp - Hard 2	1	
37	left	0	0.487	o,b	Exp - Hard 1	1	
38	right	1	0.820	O,b	Con - Easy 1	1	
39	right	1	0.486	O,b	Con - Easy 2	1	
40	right	1	0.475	O,b	Con - Easy 2	1	
1	left	0	0.783	B2,B2	Exp - Easy 2 & Easy 2	
2	right	1	2.591	B1,o1	Con - Easy 1 & Hard 1	
3	left	1	1.008	B1,b1	Con - Easy 1 & Hard 1	
4	right	1	1.406	O2,B2	Exp - Easy 2 & Easy 2	
5	right	1	2.605	o1,b1	Exp - Hard 1 & Hard 1	
6	right	1	0.838	O1,B1	Exp - Easy 1 & Easy 1	
7	right	1	1.525	O1,B1	Exp - Easy 1 & Easy 1	
8	left	0	1.237	B1,o1	Con - Easy 1 & Hard 1	
9	right	1	1.506	O1,B1	Exp - Easy 1 & Easy 1	
10	left	1	0.653	b1,B1	Con - Hard 1 & Easy 1	
11	left	1	0.871	b2,b2	Exp - Hard 2 & Hard 2	
12	left	1	1.088	b2,b2	Exp - Hard 2 & Hard 2	
13	left	1	0.821	b1,B1	Con - Hard 1 & Easy 1	
14	left	1	0.621	B1,B1	Exp - Easy 1 & Easy 1	
15	left	0	3.321	o2,B2	Con - Hard 2 & Easy 2	
16	left	0	4.405	B2,B2	Exp - Easy 2 & Easy 2	
17	right	1	1.872	o2,b2	Exp - Hard 2 & Hard 2	
18	right	1	0.903	o2,B2	Con - Hard 2 & Easy 2	
19	left	0	1.804	o2,b2	Exp - Hard 2 & Hard 2	
20	right	1	0.733	O1,B1	Exp - Easy 1 & Easy 1	
21	right	1	1.984	B2,o2	Con - Easy 2 & Hard 2	
22	left	1	1.038	B1,b1	Con - Easy 1 & Hard 1	
23	left	1	0.608	b1,B1	Con - Hard 1 & Easy 1	
24	left	1	0.756	B1,b1	Con - Easy 1 & Hard 1	
25	right	1	0.704	O2,B2	Exp - Easy 2 & Easy 2	
26	left	0	0.692	o2,b2	Exp - Hard 2 & Hard 2	
27	left	0	0.926	o2,b2	Exp - Hard 2 & Hard 2	
28	right	1	0.571	O1,B1	Exp - Easy 1 & Easy 1	
29	left	1	0.937	b2,b2	Exp - Hard 2 & Hard 2	
30	left	0	6.789	B2,o2	Con - Easy 2 & Hard 2	
31	left	0	0.505	B2,B2	Exp - Easy 2 & Easy 2	
32	left	0	0.776	B2,B2	Exp - Easy 2 & Easy 2	
33	left	1	0.555	b1,B1	Con - Hard 1 & Easy 1	
34	left	1	0.788	b1,b1	Exp - Hard 1 & Hard 1	
35	left	0	0.538	o2,B2	Con - Hard 2 & Easy 2	
36	left	0	1.437	o1,b1	Exp - Hard 1 & Hard 1	
37	left	0	1.677	B2,o2	Con - Easy 2 & Hard 2	
38	left	1	0.841	B1,b1	Con - Easy 1 & Hard 1	
39	left	1	0.607	B2,b2	Con - Easy 2 & Hard 2	
40	left	1	0.706	b2,b2	Exp - Hard 2 & Hard 2	
41	left	0	2.155	o2,b2	Exp - Hard 2 & Hard 2	
42	left	0	0.509	B2,o2	Con - Easy 2 & Hard 2	
43	left	0	0.539	o2,b2	Exp - Hard 2 & Hard 2	
44	left	1	1.108	B1,b1	Con - Easy 1 & Hard 1	
45	right	1	0.608	O1,B1	Exp - Easy 1 & Easy 1	
46	left	1	0.488	b2,B2	Con - Hard 2 & Easy 2	
47	left	0	1.008	o2,b2	Exp - Hard 2 & Hard 2	
48	right	1	0.539	O1,B1	Exp - Easy 1 & Easy 1	
49	right	1	1.694	O2,B2	Exp - Easy 2 & Easy 2	
50	left	0	0.654	o2,b2	Exp - Hard 2 & Hard 2	
51	left	1	0.677	b2,b2	Exp - Hard 2 & Hard 2	
52	left	0	1.905	B1,o1	Con - Easy 1 & Hard 1	
53	left	1	0.655	b2,B2	Con - Hard 2 & Easy 2	
54	left	1	0.572	B1,B1	Exp - Easy 1 & Easy 1	
55	right	1	1.439	o1,B1	Con - Hard 1 & Easy 1	
56	right	1	3.705	o1,b1	Exp - Hard 1 & Hard 1	
57	left	1	0.623	b1,B1	Con - Hard 1 & Easy 1	
58	left	0	0.656	o2,b2	Exp - Hard 2 & Hard 2	
59	left	0	1.072	o1,b1	Exp - Hard 1 & Hard 1	
60	left	0	0.572	o1,b1	Exp - Hard 1 & Hard 1	
61	left	1	0.688	B2,b2	Con - Easy 2 & Hard 2	
62	left	1	0.654	b1,B1	Con - Hard 1 & Easy 1	
63	left	1	0.690	B1,b1	Con - Easy 1 & Hard 1	
64	left	1	0.591	B2,b2	Con - Easy 2 & Hard 2	
65	left	1	0.554	B1,B1	Exp - Easy 1 & Easy 1	
66	left	1	0.554	b1,b1	Exp - Hard 1 & Hard 1	
67	left	1	0.620	B2,b2	Con - Easy 2 & Hard 2	
68	left	0	2.608	o2,b2	Exp - Hard 2 & Hard 2	
69	left	1	0.637	B1,B1	Exp - Easy 1 & Easy 1	
70	left	1	0.688	b1,B1	Con - Hard 1 & Easy 1	
71	left	1	0.773	b2,B2	Con - Hard 2 & Easy 2	
72	left	0	0.773	B2,B2	Exp - Easy 2 & Easy 2	
73	left	1	0.870	b2,B2	Con - Hard 2 & Easy 2	
74	left	0	0.537	B2,B2	Exp - Easy 2 & Easy 2	
75	right	1	0.620	O2,B2	Exp - Easy 2 & Easy 2	
76	left	0	0.521	B2,B2	Exp - Easy 2 & Easy 2	
77	left	1	0.554	b2,b2	Exp - Hard 2 & Hard 2	
78	right	1	1.072	o1,b1	Exp - Hard 1 & Hard 1	
79	left	1	0.592	b2,b2	Exp - Hard 2 & Hard 2	
80	right	1	0.555	o1,B1	Con - Hard 1 & Easy 1	
81	right	1	0.688	B1,o1	Con - Easy 1 & Hard 1	
82	right	1	0.886	o1,B1	Con - Hard 1 & Easy 1	
83	left	1	1.038	b2,B2	Con - Hard 2 & Easy 2	
84	left	0	7.323	o2,B2	Con - Hard 2 & Easy 2	
85	left	0	1.685	o2,b2	Exp - Hard 2 & Hard 2	
86	left	1	1.221	b1,b1	Exp - Hard 1 & Hard 1	
87	right	1	0.588	O2,B2	Exp - Easy 2 & Easy 2	
88	left	1	2.354	b1,B1	Con - Hard 1 & Easy 1	
89	left	1	3.873	B2,b2	Con - Easy 2 & Hard 2	
90	right	1	0.638	B2,o2	Con - Easy 2 & Hard 2	
91	left	0	0.637	B2,o2	Con - Easy 2 & Hard 2	
92	left	1	0.488	b1,b1	Exp - Hard 1 & Hard 1	
93	left	1	0.404	b1,b1	Exp - Hard 1 & Hard 1	
94	left	1	0.524	b2,B2	Con - Hard 2 & Easy 2	
95	left	1	0.420	B1,B1	Exp - Easy 1 & Easy 1	
96	right	1	1.305	o1,b1	Exp - Hard 1 & Hard 1	
97	left	0	0.690	B2,o2	Con - Easy 2 & Hard 2	
98	right	1	2.940	o1,b1	Exp - Hard 1 & Hard 1	
99	right	1	3.336	B2,o2	Con - Easy 2 & Hard 2	
100	left	0	0.923	o2,B2	Con - Hard 2 & Easy 2	
101	left	0	1.122	B2,o2	Con - Easy 2 & Hard 2	
102	left	0	1.986	o1,B1	Con - Hard 1 & Easy 1	
103	left	0	0.790	B2,B2	Exp - Easy 2 & Easy 2	
104	right	1	0.521	o1,b1	Exp - Hard 1 & Hard 1	
105	right	1	1.054	o1,B1	Con - Hard 1 & Easy 1	
106	left	1	1.120	B1,b1	Con - Easy 1 & Hard 1	
107	left	1	1.009	B2,b2	Con - Easy 2 & Hard 2	
108	right	1	1.121	o1,B1	Con - Hard 1 & Easy 1	
109	left	1	0.774	b1,b1	Exp - Hard 1 & Hard 1	
110	right	1	0.638	O2,B2	Exp - Easy 2 & Easy 2	
111	right	1	2.288	o1,b1	Exp - Hard 1 & Hard 1	
112	left	1	0.721	b1,b1	Exp - Hard 1 & Hard 1	
113	left	0	0.670	B2,B2	Exp - Easy 2 & Easy 2	
114	right	1	0.688	o1,B1	Con - Hard 1 & Easy 1	
115	left	1	1.205	B1,B1	Exp - Easy 1 & Easy 1	
116	left	1	3.758	b2,b2	Exp - Hard 2 & Hard 2	
117	left	1	0.556	b1,b1	Exp - Hard 1 & Hard 1	
118	left	0	2.805	o2,B2	Con - Hard 2 & Easy 2	
119	left	1	2.405	B1,b1	Con - Easy 1 & Hard 1	
120	left	1	1.521	b2,B2	Con - Hard 2 & Easy 2	
121	right	1	0.557	O2,B2	Exp - Easy 2 & Easy 2	
122	left	1	0.870	b2,B2	Con - Hard 2 & Easy 2	
123	left	1	0.539	B1,B1	Exp - Easy 1 & Easy 1	
124	left	1	0.842	b2,b2	Exp - Hard 2 & Hard 2	
125	left	1	0.887	b2,b2	Exp - Hard 2 & Hard 2	
126	left	1	0.406	B1,B1	Exp - Easy 1 & Easy 1	
127	left	1	0.591	B2,b2	Con - Easy 2 & Hard 2	
128	right	1	0.674	O2,B2	Exp - Easy 2 & Easy 2	
129	left	1	0.554	b2,B2	Con - Hard 2 & Easy 2	
130	right	1	1.389	B1,o1	Con - Easy 1 & Hard 1	
131	right	1	1.388	o1,B1	Con - Hard 1 & Easy 1	
132	left	1	2.671	B1,b1	Con - Easy 1 & Hard 1	
133	left	1	0.671	b2,b2	Exp - Hard 2 & Hard 2	
134	right	1	0.555	O1,B1	Exp - Easy 1 & Easy 1	
135	right	1	0.520	O2,B2	Exp - Easy 2 & Easy 2	
136	left	1	0.554	b2,B2	Con - Hard 2 & Easy 2	
137	right	1	1.675	o1,B1	Con - Hard 1 & Easy 1	
138	left	1	0.437	B1,b1	Con - Easy 1 & Hard 1	
139	left	1	0.721	b2,b2	Exp - Hard 2 & Hard 2	
140	left	0	4.177	o1,b1	Exp - Hard 1 & Hard 1	
141	left	1	0.524	b1,b1	Exp - Hard 1 & Hard 1	
142	left	0	0.721	B2,o2	Con - Easy 2 & Hard 2	
143	left	0	1.056	o2,B2	Con - Hard 2 & Easy 2	
144	left	1	0.693	B2,b2	Con - Easy 2 & Hard 2	
145	right	1	0.554	O1,B1	Exp - Easy 1 & Easy 1	
146	left	1	0.672	B2,b2	Con - Easy 2 & Hard 2	
147	left	1	0.524	b1,B1	Con - Hard 1 & Easy 1	
148	right	1	0.655	O2,B2	Exp - Easy 2 & Easy 2	
149	left	1	0.638	B2,b2	Con - Easy 2 & Hard 2	
150	left	1	0.421	b1,b1	Exp - Hard 1 & Hard 1	
151	left	1	0.655	b2,B2	Con - Hard 2 & Easy 2	
152	left	1	0.592	b1,b1	Exp - Hard 1 & Hard 1	
153	left	1	0.423	B1,b1	Con - Easy 1 & Hard 1	
154	right	1	1.888	o1,B1	Con - Hard 1 & Easy 1	
155	left	1	0.942	B2,b2	Con - Easy 2 & Hard 2	
156	left	1	0.454	B1,B1	Exp - Easy 1 & Easy 1	
157	left	0	0.442	o1,B1	Con - Hard 1 & Easy 1	
158	left	0	1.422	B2,o2	Con - Easy 2 & Hard 2	
159	left	0	0.820	B1,o1	Con - Easy 1 & Hard 1	
160	right	1	1.988	O2,B2	Exp - Easy 2 & Easy 2	
161	left	0	0.536	B2,B2	Exp - Easy 2 & Easy 2	
162	left	1	0.471	B1,B1	Exp - Easy 1 & Easy 1	
163	left	0	0.653	o2,B2	Con - Hard 2 & Easy 2	
164	left	0	0.438	B2,B2	Exp - Easy 2 & Easy 2	
165	right	1	1.092	O2,B2	Exp - Easy 2 & Easy 2	
166	left	0	1.304	o2,b2	Exp - Hard 2 & Hard 2	
167	left	0	4.539	B1,o1	Con - Easy 1 & Hard 1	
168	left	1	0.640	b1,B1	Con - Hard 1 & Easy 1	
169	left	0	0.757	o1,B1	Con - Hard 1 & Easy 1	
170	right	1	6.989	O1,B1	Exp - Easy 1 & Easy 1	
171	left	1	1.690	B1,b1	Con - Easy 1 & Hard 1	
172	right	1	2.092	B1,o1	Con - Easy 1 & Hard 1	
173	right	1	0.639	B1,o1	Con - Easy 1 & Hard 1	
174	left	0	0.571	B2,B2	Exp - Easy 2 & Easy 2	
175	left	1	0.422	B2,b2	Con - Easy 2 & Hard 2	
176	right	1	3.588	o1,b1	Exp - Hard 1 & Hard 1	
177	left	1	0.654	b1,B1	Con - Hard 1 & Easy 1	
178	right	1	0.520	O1,B1	Exp - Easy 1 & Easy 1	
179	left	0	0.688	B1,o1	Con - Easy 1 & Hard 1	
180	left	1	0.789	B2,b2	Con - Easy 2 & Hard 2	
181	left	0	0.638	B2,o2	Con - Easy 2 & Hard 2	
182	left	0	0.620	B1,o1	Con - Easy 1 & Hard 1	
183	left	1	0.604	b1,b1	Exp - Hard 1 & Hard 1	
184	left	1	0.607	b2,b2	Exp - Hard 2 & Hard 2	
185	left	1	0.471	b2,B2	Con - Hard 2 & Easy 2	
186	left	0	0.691	o2,b2	Exp - Hard 2 & Hard 2	
187	left	1	0.554	b1,B1	Con - Hard 1 & Easy 1	
188	left	0	0.539	o2,B2	Con - Hard 2 & Easy 2	
189	left	0	0.604	o2,B2	Con - Hard 2 & Easy 2	
190	left	1	0.510	b2,B2	Con - Hard 2 & Easy 2	
191	left	0	0.555	o2,B2	Con - Hard 2 & Easy 2	
192	left	1	0.555	b1,b1	Exp - Hard 1 & Hard 1	
193	left	1	0.640	b1,B1	Con - Hard 1 & Easy 1	
194	left	1	0.555	B1,B1	Exp - Easy 1 & Easy 1	
195	right	1	0.722	O2,B2	Exp - Easy 2 & Easy 2	
196	right	1	3.151	B1,o1	Con - Easy 1 & Hard 1	
197	left	0	0.620	o2,B2	Con - Hard 2 & Easy 2	
198	left	0	0.654	o2,B2	Con - Hard 2 & Easy 2	
199	right	1	0.588	O1,B1	Exp - Easy 1 & Easy 1	
200	left	0	2.155	o1,B1	Con - Hard 1 & Easy 1	
201	left	0	1.106	B1,o1	Con - Easy 1 & Hard 1	
202	right	1	2.904	o1,b1	Exp - Hard 1 & Hard 1	
203	right	1	0.525	O1,B1	Exp - Easy 1 & Easy 1	
204	left	1	0.511	B1,B1	Exp - Easy 1 & Easy 1	
205	left	0	1.305	B2,o2	Con - Easy 2 & Hard 2	
206	left	0	0.503	B2,B2	Exp - Easy 2 & Easy 2	
207	left	1	0.487	B1,b1	Con - Easy 1 & Hard 1	
208	left	1	0.405	B1,B1	Exp - Easy 1 & Easy 1	
1	right	1	3.550	b,o	Exp - Hard 2	2	
2	right	1	0.889	B,o	Con - Easy 2	2	
3	left	1	0.590	O,b	Con - Easy 1	2	
4	left	1	0.437	O,b	Con - Easy 2	2	
5	right	1	0.604	b,o	Exp - Hard 1	2	
6	right	1	0.521	B,o	Con - Easy 1	2	
7	left	1	0.505	O,b	Con - Easy 1	2	
8	right	1	1.221	b,o	Exp - Hard 1	2	
9	left	1	0.621	o,b	Exp - Hard 1	2	
10	left	1	0.423	o,b	Exp - Hard 1	2	
11	left	1	0.688	O,b	Con - Easy 1	2	
12	right	1	0.688	B,o	Con - Easy 2	2	
13	right	0	0.655	o,b	Exp - Hard 1	2	
14	right	1	0.903	b,o	Exp - Hard 1	2	
15	left	1	3.238	o,b	Exp - Hard 2	2	
16	right	1	0.787	b,o	Exp - Hard 2	2	
17	right	0	0.521	o,b	Exp - Hard 1	2	
18	right	1	1.038	B,o	Con - Easy 1	2	
19	right	1	0.453	B,o	Con - Easy 2	2	
20	left	1	0.803	o,b	Exp - Hard 2	2	
21	left	1	0.450	o,b	Exp - Hard 2	2	
22	right	0	0.672	o,b	Exp - Hard 2	2	
23	right	1	0.703	B,o	Con - Easy 1	2	
24	right	1	3.572	B,o	Con - Easy 2	2	
25	left	1	0.688	O,b	Con - Easy 2	2	
26	right	1	1.257	b,o	Exp - Hard 2	2	
27	right	1	0.759	b,o	Exp - Hard 1	2	
28	right	1	0.424	B,o	Con - Easy 2	2	
29	left	1	0.507	O,b	Con - Easy 2	2	
30	right	1	0.655	b,o	Exp - Hard 2	2	
31	right	1	1.888	B,o	Con - Easy 1	2	
32	left	1	0.437	O,b	Con - Easy 1	2	
33	left	1	0.389	O,b	Con - Easy 2	2	
34	left	1	0.439	O,b	Con - Easy 2	2	
35	right	0	0.705	o,b	Exp - Hard 1	2	
36	left	0	0.604	b,o	Exp - Hard 1	2	
37	right	1	0.538	B,o	Con - Easy 1	2	
38	right	1	0.371	b,o	Exp - Hard 2	2	
39	left	1	0.423	o,b	Exp - Hard 2	2	
40	left	1	0.554	O,b	Con - Easy 1	2	
1	right	0	2.443	o2,o2	Exp - Hard 2 & Hard 2	
2	right	1	1.196	B1,O1	Exp - Easy 1 & Easy 1	
3	right	1	1.277	O2,b2	Con - Easy 2 & Hard 2	
4	left	1	2.278	o1,O1	Con - Hard 1 & Easy 1	
5	left	1	0.698	o1,O1	Con - Hard 1 & Easy 1	
6	left	1	3.568	O2,o2	Exp - Easy 2 & Hard 2	
7	right	1	0.615	b1,o1	Exp - Hard 1 & Hard 1	
8	right	1	0.923	b2,O2	Con - Hard 2 & Easy 2	
9	right	1	0.791	b1,O1	Con - Hard 1 & Easy 1	
10	right	1	1.045	O2,b2	Con - Easy 2 & Hard 2	
11	right	1	1.211	B2,O2	Exp - Easy 2 & Easy 2	
12	left	1	0.572	O1,O1	Exp - Easy 1 & Easy 1	
13	right	1	0.674	b1,o1	Exp - Hard 1 & Hard 1	
14	left	1	14.925	O1,O1	Exp - Easy 1 & Easy 1	
15	right	1	1.391	O1,b1	Con - Easy 1 & Hard 1	
16	right	0	0.740	o1,o1	Exp - Hard 1 & Hard 1	
17	right	1	4.073	B1,O1	Exp - Easy 1 & Easy 1	
18	right	1	2.889	b2,o2	Exp - Hard 2 & Hard 2	
19	right	1	3.306	b2,o2	Exp - Hard 2 & Hard 2	
20	left	1	1.407	o1,o1	Exp - Hard 1 & Hard 1	
21	right	1	0.890	b2,o2	Exp - Hard 2 & Hard 2	
22	right	1	0.906	B1,O1	Exp - Easy 1 & Easy 1	
23	right	1	1.622	O2,b2	Con - Easy 2 & Hard 2	
24	right	0	0.756	o2,o2	Exp - Hard 2 & Hard 2	
25	left	1	1.276	o2,O2	Con - Hard 2 & Easy 2	
26	right	1	0.725	B1,O1	Exp - Easy 1 & Easy 1	
27	right	1	1.611	O1,b1	Con - Easy 1 & Hard 1	
28	right	1	1.139	B1,O1	Exp - Easy 1 & Easy 1	
29	right	1	1.277	O1,b1	Con - Easy 1 & Hard 1	
30	right	1	0.860	b2,O2	Con - Hard 2 & Easy 2	
31	right	1	1.090	b2,O2	Con - Hard 2 & Easy 2	
32	right	1	0.755	b1,O1	Con - Hard 1 & Easy 1	
33	left	1	0.823	O1,o1	Con - Easy 1 & Hard 1	
34	right	1	0.926	b1,O1	Con - Hard 1 & Easy 1	
35	left	1	0.695	O1,o1	Con - Easy 1 & Hard 1	
36	left	1	1.552	O2,o2	Exp - Easy 2 & Hard 2	
37	right	1	0.689	B2,O2	Exp - Easy 2 & Easy 2	
38	left	1	1.194	o2,O2	Con - Hard 2 & Easy 2	
39	right	0	1.023	o2,o2	Exp - Hard 2 & Hard 2	
40	left	1	0.879	O2,O2	Exp - Easy 2 & Easy 2	
41	right	1	0.655	B2,O2	Exp - Easy 2 & Easy 2	
42	left	0	1.196	O2,b2	Con - Easy 2 & Hard 2	
43	right	1	0.640	B2,O2	Exp - Easy 2 & Easy 2	
44	left	1	1.171	O2,o2	Exp - Easy 2 & Hard 2	
45	right	1	0.655	O1,b1	Con - Easy 1 & Hard 1	
46	right	1	0.657	b2,O2	Con - Hard 2 & Easy 2	
47	right	1	0.777	O2,b2	Con - Easy 2 & Hard 2	
48	right	1	0.572	B1,O1	Exp - Easy 1 & Easy 1	
49	left	1	0.777	O1,o1	Con - Easy 1 & Hard 1	
50	right	0	1.158	o2,o2	Exp - Hard 2 & Hard 2	
51	left	1	0.740	O1,O1	Exp - Easy 1 & Easy 1	
52	right	0	0.864	o2,o2	Exp - Hard 2 & Hard 2	
53	left	1	0.855	O1,o1	Con - Easy 1 & Hard 1	
54	right	1	1.091	b2,O2	Con - Hard 2 & Easy 2	
55	left	1	0.824	O1,o1	Con - Easy 1 & Hard 1	
56	left	1	0.624	O2,O2	Exp - Easy 2 & Easy 2	
57	left	1	1.039	o1,O1	Con - Hard 1 & Easy 1	
58	left	1	1.075	O2,o2	Exp - Easy 2 & Hard 2	
59	left	1	1.417	o1,O1	Con - Hard 1 & Easy 1	
60	left	1	3.658	o2,O2	Con - Hard 2 & Easy 2	
61	right	1	0.873	b2,O2	Con - Hard 2 & Easy 2	
62	right	1	0.906	b1,o1	Exp - Hard 1 & Hard 1	
63	right	1	0.573	b1,o1	Exp - Hard 1 & Hard 1	
64	left	1	0.921	O1,o1	Con - Easy 1 & Hard 1	
65	right	1	0.802	O1,b1	Con - Easy 1 & Hard 1	
66	right	1	0.673	b2,o2	Exp - Hard 2 & Hard 2	
67	right	1	0.573	b2,o2	Exp - Hard 2 & Hard 2	
68	right	0	0.741	o2,O2	Con - Hard 2 & Easy 2	
69	left	1	0.540	O1,O1	Exp - Easy 1 & Easy 1	
70	left	1	0.819	O1,o1	Con - Easy 1 & Hard 1	
71	right	1	0.622	B2,O2	Exp - Easy 2 & Easy 2	
72	right	1	0.839	b1,O1	Con - Hard 1 & Easy 1	
73	right	0	0.721	o2,o2	Exp - Hard 2 & Hard 2	
74	right	1	0.795	b2,o2	Exp - Hard 2 & Hard 2	
75	right	1	0.610	O1,b1	Con - Easy 1 & Hard 1	
76	left	1	0.789	o1,O1	Con - Hard 1 & Easy 1	
77	right	0	1.107	o1,o1	Exp - Hard 1 & Hard 1	
78	left	1	1.112	o2,O2	Con - Hard 2 & Easy 2	
79	right	1	0.640	b1,o1	Exp - Hard 1 & Hard 1	
80	left	1	1.038	O2,o2	Exp - Easy 2 & Hard 2	
81	right	0	1.222	o1,o1	Exp - Hard 1 & Hard 1	
82	left	1	0.674	O1,O1	Exp - Easy 1 & Easy 1	
83	left	1	0.839	o1,o1	Exp - Hard 1 & Hard 1	
84	right	1	0.642	B2,O2	Exp - Easy 2 & Easy 2	
85	right	1	1.538	B1,O1	Exp - Easy 1 & Easy 1	
86	right	1	0.492	B1,O1	Exp - Easy 1 & Easy 1	
87	right	1	0.723	b1,o1	Exp - Hard 1 & Hard 1	
88	right	1	0.573	B2,O2	Exp - Easy 2 & Easy 2	
89	left	1	0.838	O2,O2	Exp - Easy 2 & Easy 2	
90	right	1	0.657	b1,o1	Exp - Hard 1 & Hard 1	
91	right	0	3.256	o2,O2	Con - Hard 2 & Easy 2	
92	right	1	0.529	b2,o2	Exp - Hard 2 & Hard 2	
93	right	1	0.839	b1,O1	Con - Hard 1 & Easy 1	
94	left	1	0.609	O2,O2	Exp - Easy 2 & Easy 2	
95	right	0	1.447	o1,o1	Exp - Hard 1 & Hard 1	
96	right	1	1.739	O2,b2	Con - Easy 2 & Hard 2	
97	left	1	1.526	o2,O2	Con - Hard 2 & Easy 2	
98	right	1	1.031	b1,O1	Con - Hard 1 & Easy 1	
99	right	1	1.446	b2,O2	Con - Hard 2 & Easy 2	
100	right	0	0.556	o2,o2	Exp - Hard 2 & Hard 2	
101	left	1	2.422	O2,o2	Exp - Easy 2 & Hard 2	
102	left	1	1.575	O1,o1	Con - Easy 1 & Hard 1	
103	right	1	5.139	O2,b2	Con - Easy 2 & Hard 2	
104	left	1	0.738	o2,O2	Con - Hard 2 & Easy 2	
105	right	1	0.740	B2,O2	Exp - Easy 2 & Easy 2	
106	left	1	0.655	O1,o1	Con - Easy 1 & Hard 1	
107	left	1	0.541	O1,O1	Exp - Easy 1 & Easy 1	
108	right	1	0.839	O2,b2	Con - Easy 2 & Hard 2	
109	right	1	0.528	B1,O1	Exp - Easy 1 & Easy 1	
110	right	1	1.756	b2,O2	Con - Hard 2 & Easy 2	
111	left	1	1.030	o1,O1	Con - Hard 1 & Easy 1	
112	right	0	1.111	o2,O2	Con - Hard 2 & Easy 2	
113	right	1	1.039	B2,O2	Exp - Easy 2 & Easy 2	
114	right	1	2.739	b1,o1	Exp - Hard 1 & Hard 1	
115	right	1	1.555	b2,o2	Exp - Hard 2 & Hard 2	
116	right	1	0.625	b1,o1	Exp - Hard 1 & Hard 1	
117	right	1	0.722	O1,b1	Con - Easy 1 & Hard 1	
118	left	0	2.155	b1,O1	Con - Hard 1 & Easy 1	
119	right	1	0.756	B1,O1	Exp - Easy 1 & Easy 1	
120	right	0	1.610	o2,o2	Exp - Hard 2 & Hard 2	
121	left	1	1.505	O2,o2	Exp - Easy 2 & Hard 2	
122	right	1	1.191	b1,O1	Con - Hard 1 & Easy 1	
123	left	1	1.573	O2,o2	Exp - Easy 2 & Hard 2	
124	left	1	0.615	O2,O2	Exp - Easy 2 & Easy 2	
125	right	0	0.989	o1,o1	Exp - Hard 1 & Hard 1	
126	left	1	1.639	O2,o2	Exp - Easy 2 & Hard 2	
127	left	1	0.541	O1,O1	Exp - Easy 1 & Easy 1	
128	left	1	1.043	o1,O1	Con - Hard 1 & Easy 1	
129	left	1	3.196	o1,o1	Exp - Hard 1 & Hard 1	
130	left	1	0.640	o1,O1	Con - Hard 1 & Easy 1	
131	left	1	0.528	O1,O1	Exp - Easy 1 & Easy 1	
132	left	1	1.639	o1,O1	Con - Hard 1 & Easy 1	
133	right	1	0.592	b2,O2	Con - Hard 2 & Easy 2	
134	right	0	2.376	o2,O2	Con - Hard 2 & Easy 2	
135	left	1	0.657	O1,O1	Exp - Easy 1 & Easy 1	
136	right	1	1.241	b1,O1	Con - Hard 1 & Easy 1	
137	left	1	1.256	O1,o1	Con - Easy 1 & Hard 1	
138	right	0	0.757	o2,o2	Exp - Hard 2 & Hard 2	
139	left	1	1.406	o1,o1	Exp - Hard 1 & Hard 1	
140	left	0	0.813	b1,o1	Exp - Hard 1 & Hard 1	
141	right	1	0.947	O2,b2	Con - Easy 2 & Hard 2	
142	right	0	0.888	O2,o2	Exp - Easy 2 & Hard 2	
143	right	1	1.822	O1,b1	Con - Easy 1 & Hard 1	
144	right	1	1.874	b2,o2	Exp - Hard 2 & Hard 2	
145	left	1	0.672	O2,O2	Exp - Easy 2 & Easy 2	
146	left	1	0.573	O1,O1	Exp - Easy 1 & Easy 1	
147	left	1	0.615	O2,O2	Exp - Easy 2 & Easy 2	
148	right	0	0.860	o2,o2	Exp - Hard 2 & Hard 2	
149	right	1	0.823	B1,O1	Exp - Easy 1 & Easy 1	
150	left	1	0.945	O2,O2	Exp - Easy 2 & Easy 2	
151	left	1	1.361	O2,o2	Exp - Easy 2 & Hard 2	
152	right	1	1.009	b2,O2	Con - Hard 2 & Easy 2	
153	right	1	0.789	b2,o2	Exp - Hard 2 & Hard 2	
154	left	1	0.623	O1,O1	Exp - Easy 1 & Easy 1	
155	left	1	2.738	o1,O1	Con - Hard 1 & Easy 1	
156	right	1	0.742	b1,O1	Con - Hard 1 & Easy 1	
157	right	1	0.573	b2,o2	Exp - Hard 2 & Hard 2	
158	right	1	1.043	b2,O2	Con - Hard 2 & Easy 2	
159	left	1	0.822	o1,O1	Con - Hard 1 & Easy 1	
160	left	1	0.908	O2,O2	Exp - Easy 2 & Easy 2	
161	left	1	0.540	O1,O1	Exp - Easy 1 & Easy 1	
162	right	1	0.642	B2,O2	Exp - Easy 2 & Easy 2	
163	right	0	1.557	o2,o2	Exp - Hard 2 & Hard 2	
164	right	0	0.707	o2,o2	Exp - Hard 2 & Hard 2	
165	right	0	2.072	o1,o1	Exp - Hard 1 & Hard 1	
166	left	1	0.668	O1,O1	Exp - Easy 1 & Easy 1	
167	left	1	0.795	o1,O1	Con - Hard 1 & Easy 1	
168	right	1	1.575	O2,b2	Con - Easy 2 & Hard 2	
169	right	1	0.989	B2,O2	Exp - Easy 2 & Easy 2	
170	right	1	0.673	b1,o1	Exp - Hard 1 & Hard 1	
171	right	1	0.778	B1,O1	Exp - Easy 1 & Easy 1	
172	left	0	1.207	O1,b1	Con - Easy 1 & Hard 1	
173	right	1	0.641	B1,O1	Exp - Easy 1 & Easy 1	
174	right	1	1.339	O1,b1	Con - Easy 1 & Hard 1	
175	right	1	1.157	b2,O2	Con - Hard 2 & Easy 2	
176	right	0	4.390	o1,o1	Exp - Hard 1 & Hard 1	
177	right	1	0.609	B2,O2	Exp - Easy 2 & Easy 2	
178	right	1	0.873	b1,o1	Exp - Hard 1 & Hard 1	
179	left	1	0.706	O2,O2	Exp - Easy 2 & Easy 2	
180	right	1	0.574	b2,o2	Exp - Hard 2 & Hard 2	
181	right	1	0.706	b2,O2	Con - Hard 2 & Easy 2	
182	right	1	0.891	O1,b1	Con - Easy 1 & Hard 1	
183	left	1	0.944	o1,O1	Con - Hard 1 & Easy 1	
184	left	1	0.867	O1,o1	Con - Easy 1 & Hard 1	
185	left	1	1.141	O1,o1	Con - Easy 1 & Hard 1	
186	right	1	0.738	O2,b2	Con - Easy 2 & Hard 2	
187	right	1	0.756	b1,O1	Con - Hard 1 & Easy 1	
188	right	1	0.860	O2,b2	Con - Easy 2 & Hard 2	
189	right	1	0.624	O2,b2	Con - Easy 2 & Hard 2	
190	right	1	0.823	O1,b1	Con - Easy 1 & Hard 1	
191	right	1	0.756	b1,o1	Exp - Hard 1 & Hard 1	
192	left	1	2.040	o1,o1	Exp - Hard 1 & Hard 1	
193	right	1	3.379	b1,O1	Con - Hard 1 & Easy 1	
194	left	1	0.721	O2,O2	Exp - Easy 2 & Easy 2	
195	right	0	1.007	o2,O2	Con - Hard 2 & Easy 2	
196	right	1	0.861	b1,O1	Con - Hard 1 & Easy 1	
197	right	1	0.574	O1,b1	Con - Easy 1 & Hard 1	
198	left	1	1.422	o2,O2	Con - Hard 2 & Easy 2	
199	left	1	0.529	O2,O2	Exp - Easy 2 & Easy 2	
200	left	1	1.196	O2,o2	Exp - Easy 2 & Hard 2	
201	left	1	0.640	o2,O2	Con - Hard 2 & Easy 2	
202	right	1	0.657	b2,o2	Exp - Hard 2 & Hard 2	
203	right	0	0.890	o2,o2	Exp - Hard 2 & Hard 2	
204	right	0	1.906	o1,o1	Exp - Hard 1 & Hard 1	
205	left	1	0.705	O1,o1	Con - Easy 1 & Hard 1	
206	right	1	0.611	B2,O2	Exp - Easy 2 & Easy 2	
207	left	1	1.089	O2,O2	Exp - Easy 2 & Easy 2	
208	left	1	1.790	O2,o2	Exp - Easy 2 & Hard 2	
