Trial Number, Response, Correct/Incorrect(1/0), RT, Condition, Difficulty, Colour Order (Single Grids Only)
1	left	1	2.050	O,b	Con - Easy 1	2	
2	right	1	0.606	B,o	Con - Easy 1	2	
3	left	1	0.639	o,b	Exp - Hard 1	2	
4	left	1	0.805	o,b	Exp - Hard 2	2	
5	left	1	0.389	O,b	Con - Easy 2	2	
6	right	1	0.371	B,o	Con - Easy 2	2	
7	right	1	0.440	B,o	Con - Easy 2	2	
8	right	1	0.374	B,o	Con - Easy 2	2	
9	right	1	0.924	b,o	Exp - Hard 1	2	
10	right	1	0.626	B,o	Con - Easy 2	2	
11	left	1	0.925	O,b	Con - Easy 1	2	
12	left	1	2.687	o,b	Exp - Hard 2	2	
13	left	1	1.928	O,b	Con - Easy 1	2	
14	right	1	0.805	b,o	Exp - Hard 1	2	
15	left	1	0.720	o,b	Exp - Hard 2	2	
16	right	1	0.823	b,o	Exp - Hard 2	2	
17	right	1	0.625	b,o	Exp - Hard 2	2	
18	right	1	0.594	B,o	Con - Easy 2	2	
19	right	1	1.123	b,o	Exp - Hard 1	2	
20	right	1	0.540	B,o	Con - Easy 1	2	
21	right	1	0.491	B,o	Con - Easy 1	2	
22	right	1	0.456	B,o	Con - Easy 1	2	
23	left	1	0.822	O,b	Con - Easy 2	2	
24	left	1	1.307	O,b	Con - Easy 1	2	
25	right	1	0.639	b,o	Exp - Hard 2	2	
26	left	1	0.706	O,b	Con - Easy 1	2	
27	left	1	2.123	o,b	Exp - Hard 2	2	
28	left	1	0.790	o,b	Exp - Hard 1	2	
29	right	1	0.655	b,o	Exp - Hard 2	2	
30	left	1	0.756	o,b	Exp - Hard 2	2	
31	left	1	0.484	o,b	Exp - Hard 1	2	
32	right	1	0.761	b,o	Exp - Hard 1	2	
33	left	1	0.523	o,b	Exp - Hard 1	2	
34	right	1	0.555	b,o	Exp - Hard 2	2	
35	left	1	0.572	O,b	Con - Easy 2	2	
36	right	1	0.572	b,o	Exp - Hard 1	2	
37	right	0	0.991	o,b	Exp - Hard 1	2	
38	left	1	0.924	O,b	Con - Easy 2	2	
39	left	1	0.655	O,b	Con - Easy 2	2	
40	right	1	0.427	B,o	Con - Easy 1	2	
1	left	0	0.730	O1,b1	Exp - Easy 1 & Hard 1	
2	right	1	0.859	O1,B1	Exp - Easy 1 & Easy 1	
3	left	0	0.568	O1,b1	Exp - Easy 1 & Hard 1	
4	right	1	0.759	O2,B2	Exp - Easy 2 & Easy 2	
5	left	0	0.607	O2,b2	Exp - Easy 2 & Hard 2	
6	left	0	0.525	b1,O1	Exp - Hard 1 & Easy 1	
7	left	0	0.510	o2,b2	Exp - Hard 2 & Hard 2	
8	left	0	0.620	O2,b2	Exp - Easy 2 & Hard 2	
9	left	0	0.617	o2,b2	Exp - Hard 2 & Hard 2	
10	left	0	0.721	o2,b2	Exp - Hard 2 & Hard 2	
11	left	0	0.890	o1,b1	Exp - Hard 1 & Hard 1	
12	left	0	0.625	b2,O2	Exp - Hard 2 & Easy 2	
13	right	1	1.241	O1,B1	Exp - Easy 1 & Easy 1	
14	left	0	1.973	o1,b1	Exp - Hard 1 & Hard 1	
15	left	0	0.677	O1,b1	Exp - Easy 1 & Hard 1	
16	left	0	0.596	o1,b1	Exp - Hard 1 & Hard 1	
17	left	0	0.710	b2,O2	Exp - Hard 2 & Easy 2	
18	left	0	1.140	b2,O2	Exp - Hard 2 & Easy 2	
19	left	0	0.858	O1,b1	Exp - Easy 1 & Hard 1	
20	left	0	0.654	o2,b2	Exp - Hard 2 & Hard 2	
21	left	0	0.540	b2,O2	Exp - Hard 2 & Easy 2	
22	left	0	0.807	b1,O1	Exp - Hard 1 & Easy 1	
23	right	1	1.020	o1,b1	Exp - Hard 1 & Hard 1	
24	left	0	0.890	O2,b2	Exp - Easy 2 & Hard 2	
25	left	0	1.026	O2,b2	Exp - Easy 2 & Hard 2	
26	left	0	1.207	O2,b2	Exp - Easy 2 & Hard 2	
27	left	0	0.990	b2,O2	Exp - Hard 2 & Easy 2	
28	right	1	0.906	o2,b2	Exp - Hard 2 & Hard 2	
29	right	1	0.691	o1,b1	Exp - Hard 1 & Hard 1	
30	left	0	1.918	O1,b1	Exp - Easy 1 & Hard 1	
31	left	0	0.763	O1,b1	Exp - Easy 1 & Hard 1	
32	right	1	1.372	O1,B1	Exp - Easy 1 & Easy 1	
33	left	0	0.792	o1,b1	Exp - Hard 1 & Hard 1	
34	left	0	0.901	O1,b1	Exp - Easy 1 & Hard 1	
35	left	0	0.858	b2,O2	Exp - Hard 2 & Easy 2	
36	right	1	0.990	o1,b1	Exp - Hard 1 & Hard 1	
37	right	1	1.224	o2,b2	Exp - Hard 2 & Hard 2	
38	left	0	1.070	b1,O1	Exp - Hard 1 & Easy 1	
39	left	0	0.761	b1,O1	Exp - Hard 1 & Easy 1	
40	left	0	1.024	O1,b1	Exp - Easy 1 & Hard 1	
41	right	1	1.020	O1,B1	Exp - Easy 1 & Easy 1	
42	right	1	0.756	O1,B1	Exp - Easy 1 & Easy 1	
43	left	0	1.286	b2,O2	Exp - Hard 2 & Easy 2	
44	right	1	1.622	O1,B1	Exp - Easy 1 & Easy 1	
45	left	0	1.096	o2,b2	Exp - Hard 2 & Hard 2	
46	left	0	0.923	b1,O1	Exp - Hard 1 & Easy 1	
47	left	0	0.791	O1,b1	Exp - Easy 1 & Hard 1	
48	left	0	0.538	O2,b2	Exp - Easy 2 & Hard 2	
49	right	1	1.241	O1,B1	Exp - Easy 1 & Easy 1	
50	left	0	0.953	o2,b2	Exp - Hard 2 & Hard 2	
51	right	1	1.842	o2,b2	Exp - Hard 2 & Hard 2	
52	left	0	1.887	o2,b2	Exp - Hard 2 & Hard 2	
53	right	1	1.004	O2,B2	Exp - Easy 2 & Easy 2	
54	right	1	0.857	O2,B2	Exp - Easy 2 & Easy 2	
55	right	1	1.222	o1,b1	Exp - Hard 1 & Hard 1	
56	left	0	0.989	O1,b1	Exp - Easy 1 & Hard 1	
57	left	0	0.675	O2,b2	Exp - Easy 2 & Hard 2	
58	right	1	1.204	O1,B1	Exp - Easy 1 & Easy 1	
59	right	1	0.824	O2,B2	Exp - Easy 2 & Easy 2	
60	right	1	0.491	O2,B2	Exp - Easy 2 & Easy 2	
61	right	1	0.513	O2,B2	Exp - Easy 2 & Easy 2	
62	left	0	1.037	o1,b1	Exp - Hard 1 & Hard 1	
63	left	0	0.871	o2,b2	Exp - Hard 2 & Hard 2	
64	left	0	0.890	O1,b1	Exp - Easy 1 & Hard 1	
65	left	0	0.679	b1,O1	Exp - Hard 1 & Easy 1	
66	right	1	0.991	O1,B1	Exp - Easy 1 & Easy 1	
67	left	0	1.456	O1,b1	Exp - Easy 1 & Hard 1	
68	right	1	0.942	o1,b1	Exp - Hard 1 & Hard 1	
69	left	0	1.072	O2,b2	Exp - Easy 2 & Hard 2	
70	left	0	1.289	o2,b2	Exp - Hard 2 & Hard 2	
71	left	0	0.941	b2,O2	Exp - Hard 2 & Easy 2	
72	left	0	0.672	o1,b1	Exp - Hard 1 & Hard 1	
73	left	0	0.776	b1,O1	Exp - Hard 1 & Easy 1	
74	left	0	1.073	o1,b1	Exp - Hard 1 & Hard 1	
75	right	1	1.239	o1,b1	Exp - Hard 1 & Hard 1	
76	right	1	1.925	o1,b1	Exp - Hard 1 & Hard 1	
77	left	0	0.806	b1,O1	Exp - Hard 1 & Easy 1	
78	left	0	0.677	b2,O2	Exp - Hard 2 & Easy 2	
79	left	0	0.929	O2,b2	Exp - Easy 2 & Hard 2	
80	right	1	0.826	o2,b2	Exp - Hard 2 & Hard 2	
81	left	0	1.343	O1,b1	Exp - Easy 1 & Hard 1	
82	left	0	0.937	O1,b1	Exp - Easy 1 & Hard 1	
83	left	0	0.904	b2,O2	Exp - Hard 2 & Easy 2	
84	left	0	3.088	b1,O1	Exp - Hard 1 & Easy 1	
85	right	1	1.271	o1,b1	Exp - Hard 1 & Hard 1	
86	left	0	0.756	O1,b1	Exp - Easy 1 & Hard 1	
87	left	0	0.806	o2,b2	Exp - Hard 2 & Hard 2	
88	left	0	0.656	b2,O2	Exp - Hard 2 & Easy 2	
89	right	1	2.173	O1,B1	Exp - Easy 1 & Easy 1	
90	left	0	2.825	O2,b2	Exp - Easy 2 & Hard 2	
91	left	0	2.541	b2,O2	Exp - Hard 2 & Easy 2	
92	right	1	15.374	O1,B1	Exp - Easy 1 & Easy 1	
93	left	0	0.654	b2,O2	Exp - Hard 2 & Easy 2	
94	left	0	0.905	o2,b2	Exp - Hard 2 & Hard 2	
95	left	0	0.905	b1,O1	Exp - Hard 1 & Easy 1	
96	right	1	1.093	O2,B2	Exp - Easy 2 & Easy 2	
97	left	0	1.540	O1,b1	Exp - Easy 1 & Hard 1	
98	left	0	1.677	O2,b2	Exp - Easy 2 & Hard 2	
99	left	0	0.854	b1,O1	Exp - Hard 1 & Easy 1	
100	right	1	1.003	O1,B1	Exp - Easy 1 & Easy 1	
101	right	1	0.706	O2,B2	Exp - Easy 2 & Easy 2	
102	left	0	0.855	b1,O1	Exp - Hard 1 & Easy 1	
103	left	0	0.720	b1,O1	Exp - Hard 1 & Easy 1	
104	left	0	1.358	O1,b1	Exp - Easy 1 & Hard 1	
105	left	0	0.708	o2,b2	Exp - Hard 2 & Hard 2	
106	right	1	0.740	O2,B2	Exp - Easy 2 & Easy 2	
107	left	0	0.707	O1,b1	Exp - Easy 1 & Hard 1	
108	left	0	1.095	b2,O2	Exp - Hard 2 & Easy 2	
109	right	1	0.656	O1,B1	Exp - Easy 1 & Easy 1	
110	left	0	0.678	b1,O1	Exp - Hard 1 & Easy 1	
111	left	0	0.929	O2,b2	Exp - Easy 2 & Hard 2	
112	right	1	0.759	O1,B1	Exp - Easy 1 & Easy 1	
113	right	1	0.675	O2,B2	Exp - Easy 2 & Easy 2	
114	left	0	1.086	O1,B1	Exp - Easy 1 & Easy 1	
115	left	0	1.279	b2,O2	Exp - Hard 2 & Easy 2	
116	right	1	0.575	O2,B2	Exp - Easy 2 & Easy 2	
117	right	1	0.658	O1,B1	Exp - Easy 1 & Easy 1	
118	left	0	0.842	b1,O1	Exp - Hard 1 & Easy 1	
119	right	1	4.038	o2,b2	Exp - Hard 2 & Hard 2	
120	left	0	0.740	O1,b1	Exp - Easy 1 & Hard 1	
121	right	1	0.594	O2,B2	Exp - Easy 2 & Easy 2	
122	left	0	1.306	O1,b1	Exp - Easy 1 & Hard 1	
123	right	1	0.872	O2,B2	Exp - Easy 2 & Easy 2	
124	right	1	0.658	O2,B2	Exp - Easy 2 & Easy 2	
125	right	1	0.928	o2,b2	Exp - Hard 2 & Hard 2	
126	left	0	1.474	b1,O1	Exp - Hard 1 & Easy 1	
127	right	1	0.572	O2,B2	Exp - Easy 2 & Easy 2	
128	right	1	1.208	o2,b2	Exp - Hard 2 & Hard 2	
129	right	1	0.624	o2,b2	Exp - Hard 2 & Hard 2	
130	right	1	0.678	O1,B1	Exp - Easy 1 & Easy 1	
131	right	1	0.526	o1,b1	Exp - Hard 1 & Hard 1	
132	left	0	1.074	o2,b2	Exp - Hard 2 & Hard 2	
133	left	0	0.873	O2,b2	Exp - Easy 2 & Hard 2	
134	right	1	1.476	O1,B1	Exp - Easy 1 & Easy 1	
135	right	1	3.404	O1,B1	Exp - Easy 1 & Easy 1	
136	right	1	0.604	O2,B2	Exp - Easy 2 & Easy 2	
137	right	1	0.826	o1,b1	Exp - Hard 1 & Hard 1	
138	right	1	0.722	O1,B1	Exp - Easy 1 & Easy 1	
139	left	0	0.623	b2,O2	Exp - Hard 2 & Easy 2	
140	left	0	1.012	b2,O2	Exp - Hard 2 & Easy 2	
141	right	1	0.862	O2,B2	Exp - Easy 2 & Easy 2	
142	left	0	0.802	O2,b2	Exp - Easy 2 & Hard 2	
143	left	0	1.021	b2,O2	Exp - Hard 2 & Easy 2	
144	right	1	0.656	o1,b1	Exp - Hard 1 & Hard 1	
145	right	1	0.764	o2,b2	Exp - Hard 2 & Hard 2	
146	left	0	1.023	O1,B1	Exp - Easy 1 & Easy 1	
147	right	1	1.490	O1,B1	Exp - Easy 1 & Easy 1	
148	left	0	1.039	b1,O1	Exp - Hard 1 & Easy 1	
149	right	1	2.306	O2,b2	Exp - Easy 2 & Hard 2	
150	right	1	0.638	o1,b1	Exp - Hard 1 & Hard 1	
151	right	1	0.688	O2,B2	Exp - Easy 2 & Easy 2	
152	left	0	0.779	b2,O2	Exp - Hard 2 & Easy 2	
153	left	0	1.927	O2,b2	Exp - Easy 2 & Hard 2	
154	left	0	0.789	b2,O2	Exp - Hard 2 & Easy 2	
155	left	0	0.720	b2,O2	Exp - Hard 2 & Easy 2	
156	left	0	1.156	b1,O1	Exp - Hard 1 & Easy 1	
157	left	0	0.985	O2,b2	Exp - Easy 2 & Hard 2	
158	left	0	2.240	o2,b2	Exp - Hard 2 & Hard 2	
159	left	0	2.056	b1,O1	Exp - Hard 1 & Easy 1	
160	left	0	0.930	O1,b1	Exp - Easy 1 & Hard 1	
161	left	0	1.119	o2,b2	Exp - Hard 2 & Hard 2	
162	left	0	3.013	O2,b2	Exp - Easy 2 & Hard 2	
163	right	1	0.770	O2,B2	Exp - Easy 2 & Easy 2	
164	right	1	2.087	O2,B2	Exp - Easy 2 & Easy 2	
165	right	1	0.741	o2,b2	Exp - Hard 2 & Hard 2	
166	left	0	0.519	b1,O1	Exp - Hard 1 & Easy 1	
167	right	1	0.925	O1,B1	Exp - Easy 1 & Easy 1	
168	left	0	1.372	O2,b2	Exp - Easy 2 & Hard 2	
169	left	0	1.057	O2,b2	Exp - Easy 2 & Hard 2	
170	right	1	0.656	O2,B2	Exp - Easy 2 & Easy 2	
171	right	1	0.808	O1,B1	Exp - Easy 1 & Easy 1	
172	left	0	1.106	b1,O1	Exp - Hard 1 & Easy 1	
173	left	0	1.490	o1,b1	Exp - Hard 1 & Hard 1	
174	right	1	0.655	O2,B2	Exp - Easy 2 & Easy 2	
175	right	1	0.873	O2,B2	Exp - Easy 2 & Easy 2	
176	left	0	1.206	O2,b2	Exp - Easy 2 & Hard 2	
177	left	0	0.456	b2,O2	Exp - Hard 2 & Easy 2	
178	left	0	0.557	O1,b1	Exp - Easy 1 & Hard 1	
179	left	0	0.740	O2,b2	Exp - Easy 2 & Hard 2	
180	left	0	0.639	O2,b2	Exp - Easy 2 & Hard 2	
181	left	0	0.805	b2,O2	Exp - Hard 2 & Easy 2	
182	left	0	0.541	O1,b1	Exp - Easy 1 & Hard 1	
183	right	1	1.177	o1,b1	Exp - Hard 1 & Hard 1	
184	left	0	0.703	b1,O1	Exp - Hard 1 & Easy 1	
185	left	0	0.680	O2,b2	Exp - Easy 2 & Hard 2	
186	left	0	0.572	b1,O1	Exp - Hard 1 & Easy 1	
187	left	0	0.990	O1,B1	Exp - Easy 1 & Easy 1	
188	left	0	0.541	O1,b1	Exp - Easy 1 & Hard 1	
189	right	1	0.694	o1,b1	Exp - Hard 1 & Hard 1	
190	left	0	0.624	o1,b1	Exp - Hard 1 & Hard 1	
191	left	0	0.570	O1,b1	Exp - Easy 1 & Hard 1	
192	left	0	0.519	b2,O2	Exp - Hard 2 & Easy 2	
193	left	0	0.473	b1,O1	Exp - Hard 1 & Easy 1	
194	right	1	0.891	O2,B2	Exp - Easy 2 & Easy 2	
195	right	1	0.605	O2,B2	Exp - Easy 2 & Easy 2	
196	left	0	0.584	b2,O2	Exp - Hard 2 & Easy 2	
197	right	1	0.608	o1,b1	Exp - Hard 1 & Hard 1	
198	left	0	0.589	b1,O1	Exp - Hard 1 & Easy 1	
199	left	0	0.534	O2,b2	Exp - Easy 2 & Hard 2	
200	right	1	0.808	o1,b1	Exp - Hard 1 & Hard 1	
1	left	1	0.744	B,o	Con - Easy 1	1	
2	left	1	0.372	b,o	Exp - Hard 2	1	
3	right	1	0.473	O,b	Con - Easy 2	1	
4	left	1	0.509	b,o	Exp - Hard 1	1	
5	left	1	0.594	b,o	Exp - Hard 1	1	
6	right	1	0.475	O,b	Con - Easy 1	1	
7	left	1	0.524	B,o	Con - Easy 2	1	
8	left	0	0.704	o,b	Exp - Hard 2	1	
9	left	0	0.520	o,b	Exp - Hard 1	1	
10	right	0	0.806	b,o	Exp - Hard 1	1	
11	left	1	1.026	B,o	Con - Easy 2	1	
12	left	1	0.390	b,o	Exp - Hard 2	1	
13	left	1	0.440	B,o	Con - Easy 1	1	
14	left	1	1.223	b,o	Exp - Hard 2	1	
15	left	1	0.471	B,o	Con - Easy 1	1	
16	left	1	0.457	b,o	Exp - Hard 2	1	
17	left	0	0.690	o,b	Exp - Hard 2	1	
18	left	1	0.555	b,o	Exp - Hard 1	1	
19	left	1	0.439	B,o	Con - Easy 2	1	
20	right	1	0.476	O,b	Con - Easy 2	1	
21	right	1	0.620	O,b	Con - Easy 1	1	
22	right	1	0.654	o,b	Exp - Hard 2	1	
23	right	1	1.724	O,b	Con - Easy 2	1	
24	right	1	0.425	O,b	Con - Easy 2	1	
25	right	1	0.523	O,b	Con - Easy 1	1	
26	left	0	0.673	o,b	Exp - Hard 1	1	
27	left	0	0.655	o,b	Exp - Hard 1	1	
28	left	1	0.418	B,o	Con - Easy 2	1	
29	left	0	0.939	o,b	Exp - Hard 1	1	
30	left	1	0.572	B,o	Con - Easy 1	1	
31	left	1	0.489	B,o	Con - Easy 2	1	
32	right	1	0.792	O,b	Con - Easy 2	1	
33	left	0	1.507	o,b	Exp - Hard 2	1	
34	left	0	0.806	o,b	Exp - Hard 2	1	
35	left	1	0.789	b,o	Exp - Hard 1	1	
36	left	1	1.305	B,o	Con - Easy 1	1	
37	right	1	0.873	O,b	Con - Easy 1	1	
38	right	1	0.675	O,b	Con - Easy 1	1	
39	left	0	0.741	o,b	Exp - Hard 1	1	
40	left	1	0.593	b,o	Exp - Hard 2	1	
1	left	0	1.255	B1,O1	Exp - Easy 1 & Easy 1	
2	left	0	0.639	o2,B2	Exp - Hard 2 & Easy 2	
3	left	0	0.974	B2,o2	Exp - Easy 2 & Hard 2	
4	right	1	1.074	B1,O1	Exp - Easy 1 & Easy 1	
5	left	0	0.702	o2,B2	Exp - Hard 2 & Easy 2	
6	left	0	1.153	b1,o1	Exp - Hard 1 & Hard 1	
7	left	0	0.285	B1,O1	Exp - Easy 1 & Easy 1	
8	left	0	0.802	o2,B2	Exp - Hard 2 & Easy 2	
9	left	0	0.656	b1,o1	Exp - Hard 1 & Hard 1	
10	left	0	0.655	o1,B1	Exp - Hard 1 & Easy 1	
11	right	1	0.707	B2,O2	Exp - Easy 2 & Easy 2	
12	left	0	0.535	B1,o1	Exp - Easy 1 & Hard 1	
13	right	1	0.595	B2,O2	Exp - Easy 2 & Easy 2	
14	left	0	0.739	o2,B2	Exp - Hard 2 & Easy 2	
15	left	0	1.156	b2,o2	Exp - Hard 2 & Hard 2	
16	right	1	0.556	B2,O2	Exp - Easy 2 & Easy 2	
17	left	0	0.702	B1,o1	Exp - Easy 1 & Hard 1	
18	right	1	0.609	B1,O1	Exp - Easy 1 & Easy 1	
19	left	0	0.622	o2,B2	Exp - Hard 2 & Easy 2	
20	right	1	2.701	B2,o2	Exp - Easy 2 & Hard 2	
21	left	0	0.956	B2,o2	Exp - Easy 2 & Hard 2	
22	left	0	0.921	o1,B1	Exp - Hard 1 & Easy 1	
23	right	1	0.636	B2,O2	Exp - Easy 2 & Easy 2	
24	left	0	1.055	B1,O1	Exp - Easy 1 & Easy 1	
25	left	0	1.428	B1,O1	Exp - Easy 1 & Easy 1	
26	left	0	0.654	b2,o2	Exp - Hard 2 & Hard 2	
27	left	0	0.940	b1,o1	Exp - Hard 1 & Hard 1	
28	left	0	0.823	B1,O1	Exp - Easy 1 & Easy 1	
29	left	0	1.172	o2,B2	Exp - Hard 2 & Easy 2	
30	left	0	0.677	b1,o1	Exp - Hard 1 & Hard 1	
31	left	0	0.654	o2,B2	Exp - Hard 2 & Easy 2	
32	left	0	1.189	o1,B1	Exp - Hard 1 & Easy 1	
33	right	1	0.775	B2,o2	Exp - Easy 2 & Hard 2	
34	left	0	0.724	b2,o2	Exp - Hard 2 & Hard 2	
35	left	0	0.822	o1,B1	Exp - Hard 1 & Easy 1	
36	left	0	1.011	B2,o2	Exp - Easy 2 & Hard 2	
37	left	0	1.255	o2,B2	Exp - Hard 2 & Easy 2	
38	left	0	0.928	b1,o1	Exp - Hard 1 & Hard 1	
39	left	0	0.807	B2,o2	Exp - Easy 2 & Hard 2	
40	left	0	1.029	B1,o1	Exp - Easy 1 & Hard 1	
41	left	0	4.441	o2,B2	Exp - Hard 2 & Easy 2	
42	right	1	0.641	B2,O2	Exp - Easy 2 & Easy 2	
43	left	0	0.535	o1,B1	Exp - Hard 1 & Easy 1	
44	left	0	1.028	B2,o2	Exp - Easy 2 & Hard 2	
45	left	0	0.973	b1,o1	Exp - Hard 1 & Hard 1	
46	left	0	0.624	b2,o2	Exp - Hard 2 & Hard 2	
47	left	0	0.672	b1,o1	Exp - Hard 1 & Hard 1	
48	right	1	0.706	B1,O1	Exp - Easy 1 & Easy 1	
49	left	0	0.610	b2,o2	Exp - Hard 2 & Hard 2	
50	left	0	0.789	o1,B1	Exp - Hard 1 & Easy 1	
51	right	1	0.973	B1,O1	Exp - Easy 1 & Easy 1	
52	left	0	0.639	b2,o2	Exp - Hard 2 & Hard 2	
53	right	1	0.672	B1,O1	Exp - Easy 1 & Easy 1	
54	left	0	1.073	o2,B2	Exp - Hard 2 & Easy 2	
55	right	1	1.139	B2,O2	Exp - Easy 2 & Easy 2	
56	left	0	0.739	b2,o2	Exp - Hard 2 & Hard 2	
57	left	0	0.670	B2,o2	Exp - Easy 2 & Hard 2	
58	left	0	0.859	B1,o1	Exp - Easy 1 & Hard 1	
59	left	0	0.657	B2,o2	Exp - Easy 2 & Hard 2	
60	left	0	7.738	B1,o1	Exp - Easy 1 & Hard 1	
61	left	0	0.873	b1,o1	Exp - Hard 1 & Hard 1	
62	left	0	0.822	o1,B1	Exp - Hard 1 & Easy 1	
63	left	0	0.763	b2,o2	Exp - Hard 2 & Hard 2	
64	left	0	0.656	o1,B1	Exp - Hard 1 & Easy 1	
65	right	1	1.275	B1,O1	Exp - Easy 1 & Easy 1	
66	left	0	0.755	o1,B1	Exp - Hard 1 & Easy 1	
67	right	1	1.988	B1,O1	Exp - Easy 1 & Easy 1	
68	left	0	0.623	o2,B2	Exp - Hard 2 & Easy 2	
69	left	0	1.688	B2,o2	Exp - Easy 2 & Hard 2	
70	right	1	1.279	B1,O1	Exp - Easy 1 & Easy 1	
71	right	1	0.678	B2,O2	Exp - Easy 2 & Easy 2	
72	left	0	0.737	b2,o2	Exp - Hard 2 & Hard 2	
73	left	0	1.505	B2,o2	Exp - Easy 2 & Hard 2	
74	left	0	1.705	b2,o2	Exp - Hard 2 & Hard 2	
75	right	1	0.957	B2,O2	Exp - Easy 2 & Easy 2	
76	left	0	0.589	B1,o1	Exp - Easy 1 & Hard 1	
77	left	0	0.656	b2,o2	Exp - Hard 2 & Hard 2	
78	left	0	0.557	B1,o1	Exp - Easy 1 & Hard 1	
79	right	1	0.752	B1,O1	Exp - Easy 1 & Easy 1	
80	left	0	0.522	b1,o1	Exp - Hard 1 & Hard 1	
81	left	0	0.639	B1,o1	Exp - Easy 1 & Hard 1	
82	right	1	0.943	B2,O2	Exp - Easy 2 & Easy 2	
83	left	0	0.622	B2,o2	Exp - Easy 2 & Hard 2	
84	left	0	0.586	o1,B1	Exp - Hard 1 & Easy 1	
85	right	1	0.843	B2,O2	Exp - Easy 2 & Easy 2	
86	left	0	0.572	B1,O1	Exp - Easy 1 & Easy 1	
87	left	0	0.608	b1,o1	Exp - Hard 1 & Hard 1	
88	right	1	0.930	B2,O2	Exp - Easy 2 & Easy 2	
89	right	1	1.942	B2,O2	Exp - Easy 2 & Easy 2	
90	left	0	0.821	o1,B1	Exp - Hard 1 & Easy 1	
91	left	0	0.573	o1,B1	Exp - Hard 1 & Easy 1	
92	left	0	0.575	o2,B2	Exp - Hard 2 & Easy 2	
93	left	0	0.776	B2,o2	Exp - Easy 2 & Hard 2	
94	left	0	0.522	b2,o2	Exp - Hard 2 & Hard 2	
95	left	0	0.540	o1,B1	Exp - Hard 1 & Easy 1	
96	left	0	0.657	o1,B1	Exp - Hard 1 & Easy 1	
97	right	1	1.155	B1,O1	Exp - Easy 1 & Easy 1	
98	left	0	0.818	b1,o1	Exp - Hard 1 & Hard 1	
99	right	1	2.278	B2,O2	Exp - Easy 2 & Easy 2	
100	right	1	4.209	B2,O2	Exp - Easy 2 & Easy 2	
101	left	0	0.890	o1,B1	Exp - Hard 1 & Easy 1	
102	left	0	2.171	B2,o2	Exp - Easy 2 & Hard 2	
103	left	0	0.639	b1,o1	Exp - Hard 1 & Hard 1	
104	right	1	0.762	B2,O2	Exp - Easy 2 & Easy 2	
105	left	0	0.555	B2,O2	Exp - Easy 2 & Easy 2	
106	left	0	0.538	B2,o2	Exp - Easy 2 & Hard 2	
107	left	0	0.706	o2,B2	Exp - Hard 2 & Easy 2	
108	left	0	0.489	b2,o2	Exp - Hard 2 & Hard 2	
109	left	0	1.073	b1,o1	Exp - Hard 1 & Hard 1	
110	left	0	1.358	b2,o2	Exp - Hard 2 & Hard 2	
111	left	0	0.990	o1,B1	Exp - Hard 1 & Easy 1	
112	left	0	0.706	o1,B1	Exp - Hard 1 & Easy 1	
113	left	0	1.140	B2,o2	Exp - Easy 2 & Hard 2	
114	left	0	0.527	b1,o1	Exp - Hard 1 & Hard 1	
115	left	0	0.574	o1,B1	Exp - Hard 1 & Easy 1	
116	left	0	0.720	b1,o1	Exp - Hard 1 & Hard 1	
117	left	0	0.490	b2,o2	Exp - Hard 2 & Hard 2	
118	left	0	0.903	b2,o2	Exp - Hard 2 & Hard 2	
119	left	0	0.890	o1,B1	Exp - Hard 1 & Easy 1	
120	left	0	0.635	o2,B2	Exp - Hard 2 & Easy 2	
121	left	0	0.839	B2,o2	Exp - Easy 2 & Hard 2	
122	left	0	0.610	B1,o1	Exp - Easy 1 & Hard 1	
123	left	0	0.470	b1,o1	Exp - Hard 1 & Hard 1	
124	left	0	0.607	o2,B2	Exp - Hard 2 & Easy 2	
125	left	0	0.806	b1,o1	Exp - Hard 1 & Hard 1	
126	left	0	0.602	B2,o2	Exp - Easy 2 & Hard 2	
127	left	0	0.778	b2,o2	Exp - Hard 2 & Hard 2	
128	right	1	0.757	B1,O1	Exp - Easy 1 & Easy 1	
129	left	0	0.739	B1,o1	Exp - Easy 1 & Hard 1	
130	left	0	0.587	o1,B1	Exp - Hard 1 & Easy 1	
131	left	0	0.573	B1,o1	Exp - Easy 1 & Hard 1	
132	left	0	0.607	b2,o2	Exp - Hard 2 & Hard 2	
133	left	0	0.572	b1,o1	Exp - Hard 1 & Hard 1	
134	right	1	1.360	B1,O1	Exp - Easy 1 & Easy 1	
135	left	0	0.707	B2,o2	Exp - Easy 2 & Hard 2	
136	left	0	0.553	o2,B2	Exp - Hard 2 & Easy 2	
137	right	1	0.620	B2,O2	Exp - Easy 2 & Easy 2	
138	left	0	0.589	o1,B1	Exp - Hard 1 & Easy 1	
139	left	0	0.522	B1,o1	Exp - Easy 1 & Hard 1	
140	left	0	0.989	o2,B2	Exp - Hard 2 & Easy 2	
141	left	0	0.705	o1,B1	Exp - Hard 1 & Easy 1	
142	left	0	0.557	o1,B1	Exp - Hard 1 & Easy 1	
143	left	0	0.672	o2,B2	Exp - Hard 2 & Easy 2	
144	left	0	1.673	B1,O1	Exp - Easy 1 & Easy 1	
145	right	1	0.694	B2,O2	Exp - Easy 2 & Easy 2	
146	left	0	0.526	B1,o1	Exp - Easy 1 & Hard 1	
147	left	0	0.718	B2,o2	Exp - Easy 2 & Hard 2	
148	left	0	0.521	B1,o1	Exp - Easy 1 & Hard 1	
149	left	0	1.088	o2,B2	Exp - Hard 2 & Easy 2	
150	right	1	0.704	B2,O2	Exp - Easy 2 & Easy 2	
151	left	0	0.692	B2,o2	Exp - Easy 2 & Hard 2	
152	left	0	0.574	B1,o1	Exp - Easy 1 & Hard 1	
153	left	0	0.691	B2,o2	Exp - Easy 2 & Hard 2	
154	left	0	0.443	b2,o2	Exp - Hard 2 & Hard 2	
155	right	1	0.845	B1,O1	Exp - Easy 1 & Easy 1	
156	left	0	0.776	B1,o1	Exp - Easy 1 & Hard 1	
157	left	0	0.609	o2,B2	Exp - Hard 2 & Easy 2	
158	left	0	0.886	B2,O2	Exp - Easy 2 & Easy 2	
159	right	1	3.924	B2,O2	Exp - Easy 2 & Easy 2	
160	left	0	0.654	B1,o1	Exp - Easy 1 & Hard 1	
161	left	0	0.609	B2,o2	Exp - Easy 2 & Hard 2	
162	left	0	0.573	b1,o1	Exp - Hard 1 & Hard 1	
163	left	0	0.756	o2,B2	Exp - Hard 2 & Easy 2	
164	left	0	0.519	b1,o1	Exp - Hard 1 & Hard 1	
165	left	0	0.502	b1,o1	Exp - Hard 1 & Hard 1	
166	left	0	0.491	B1,o1	Exp - Easy 1 & Hard 1	
167	right	1	1.003	B2,O2	Exp - Easy 2 & Easy 2	
168	left	0	0.638	b2,o2	Exp - Hard 2 & Hard 2	
169	left	0	1.072	B2,o2	Exp - Easy 2 & Hard 2	
170	left	0	0.621	o2,B2	Exp - Hard 2 & Easy 2	
171	left	0	0.637	b1,o1	Exp - Hard 1 & Hard 1	
172	left	0	0.510	b2,o2	Exp - Hard 2 & Hard 2	
173	left	0	0.840	o2,B2	Exp - Hard 2 & Easy 2	
174	left	0	0.556	b1,o1	Exp - Hard 1 & Hard 1	
175	left	0	0.488	B1,o1	Exp - Easy 1 & Hard 1	
176	right	1	0.707	B2,O2	Exp - Easy 2 & Easy 2	
177	left	0	0.451	B1,o1	Exp - Easy 1 & Hard 1	
178	left	0	0.444	b2,o2	Exp - Hard 2 & Hard 2	
179	right	1	1.473	B1,O1	Exp - Easy 1 & Easy 1	
180	left	0	0.622	B1,O1	Exp - Easy 1 & Easy 1	
181	left	0	0.555	B1,o1	Exp - Easy 1 & Hard 1	
182	left	0	0.373	B1,o1	Exp - Easy 1 & Hard 1	
183	left	0	0.452	B2,o2	Exp - Easy 2 & Hard 2	
184	left	0	0.821	B1,O1	Exp - Easy 1 & Easy 1	
185	left	0	0.373	o2,B2	Exp - Hard 2 & Easy 2	
186	right	1	0.594	B2,O2	Exp - Easy 2 & Easy 2	
187	right	1	0.788	B1,O1	Exp - Easy 1 & Easy 1	
188	left	0	0.555	b2,o2	Exp - Hard 2 & Hard 2	
189	left	0	0.652	b1,o1	Exp - Hard 1 & Hard 1	
190	left	0	0.472	B1,o1	Exp - Easy 1 & Hard 1	
191	right	1	0.757	B1,O1	Exp - Easy 1 & Easy 1	
192	left	0	0.824	o2,B2	Exp - Hard 2 & Easy 2	
193	right	1	0.557	B2,O2	Exp - Easy 2 & Easy 2	
194	left	0	0.506	b2,o2	Exp - Hard 2 & Hard 2	
195	left	0	0.423	b1,o1	Exp - Hard 1 & Hard 1	
196	left	0	0.541	B1,o1	Exp - Easy 1 & Hard 1	
197	left	0	0.886	o1,B1	Exp - Hard 1 & Easy 1	
198	left	0	0.786	B1,o1	Exp - Easy 1 & Hard 1	
199	left	0	0.691	o1,B1	Exp - Hard 1 & Easy 1	
200	right	1	3.754	b2,o2	Exp - Hard 2 & Hard 2	
